human_time,timestamp,qx,qy,qz,qw,wx,wy,wz,ax,ay,az
2026-03-26 20:08:13.247,1774523293.247094,0.03681092415661818,-0.008453357866432684,-0.28624125188962296,0.9574128901995101,0.0,0.0,-0.0,0.04903325,0.784532,9.747810099999999
2026-03-26 20:08:13.257,1774523293.25717,0.03681092415661818,-0.008453357866432684,-0.28624125188962296,0.9574128901995101,0.0,0.0,-0.0,0.04903325,0.8041453,9.7674234
2026-03-26 20:08:13.266,1774523293.266996,0.03689447405252161,-0.0084783370957155,-0.2862405131050599,0.9574096741948198,0.0,0.0,-0.0,0.02941995,0.7943386499999999,9.7674234
2026-03-26 20:08:13.276,1774523293.276703,0.03689447405252161,-0.0084783370957155,-0.2862405131050599,0.9574096741948198,0.0,0.0,-0.0,0.0588399,0.7649187,9.738003449999999
2026-03-26 20:08:13.286,1774523293.286909,0.03689447405252161,-0.0084783370957155,-0.2862405131050599,0.9574096741948198,0.0,0.0,-0.0,0.0588399,0.7551120499999999,9.747810099999999
2026-03-26 20:08:13.296,1774523293.296803,0.03689447405252161,-0.0084783370957155,-0.2862405131050599,0.9574096741948198,0.0,0.0,-0.0,0.06864655,0.77472535,9.77723005
2026-03-26 20:08:13.307,1774523293.307126,0.03689447405252161,-0.0084783370957155,-0.2862405131050599,0.9574096741948198,0.0,0.0,-0.0,0.04903325,0.7649187,9.77723005
2026-03-26 20:08:13.316,1774523293.316998,0.03689447405252161,-0.0084783370957155,-0.2862405131050599,0.9574096741948198,0.0,0.0,-0.0,0.0392266,0.7256921,9.747810099999999
2026-03-26 20:08:13.327,1774523293.327344,0.03689447405252161,-0.0084783370957155,-0.2862405131050599,0.9574096741948198,0.0,0.0,-0.0,0.0588399,0.7943386499999999,9.77723005
2026-03-26 20:08:13.337,1774523293.337087,0.03689447405252161,-0.0084783370957155,-0.2862405131050599,0.9574096741948198,0.0,0.0,-0.0,0.0588399,0.6668522,9.7085835
2026-03-26 20:08:13.346,1774523293.346758,0.03689447405252161,-0.0084783370957155,-0.2862405131050599,0.9574096741948198,0.0,0.0,-0.0,-0.0196133,0.7551120499999999,9.80665
2026-03-26 20:08:13.357,1774523293.357037,0.03689447405252161,-0.0084783370957155,-0.2862405131050599,0.9574096741948198,0.0,0.0,-0.0,0.0980665,0.7158854499999999,9.79684335
2026-03-26 20:08:13.367,1774523293.367126,0.03689447405252161,-0.0084783370957155,-0.2862405131050599,0.9574096741948198,0.0,0.0,-0.0,0.0588399,0.7158854499999999,9.738003449999999
2026-03-26 20:08:13.376,1774523293.37688,0.03689447405252161,-0.0084783370957155,-0.2862405131050599,0.9574096741948198,0.0,0.0,-0.0,0.10787314999999999,0.67665885,9.7085835
2026-03-26 20:08:13.386,1774523293.386914,0.03681092415661818,-0.008453357866432684,-0.28624125188962296,0.9574128901995101,0.0,0.0,-0.0,0.0588399,0.7158854499999999,9.79684335
2026-03-26 20:08:13.396,1774523293.396815,0.0368358878775306,-0.00836980319540972,-0.2862443411245165,0.9574117405447541,0.0,0.0,-0.0,0.0392266,0.784532,9.77723005
2026-03-26 20:08:13.406,1774523293.406882,0.03691943767301267,-0.00839478269459729,-0.2862436096314622,0.9574085223615727,0.0,0.0,-0.0,0.0784532,0.7158854499999999,9.747810099999999
2026-03-26 20:08:13.417,1774523293.417184,0.0368358878775306,-0.00836980319540972,-0.2862443411245165,0.9574117405447541,0.0,0.0,-0.0,0.02941995,0.7060787999999999,9.7085835
2026-03-26 20:08:13.427,1774523293.427167,0.0368358878775306,-0.00836980319540972,-0.2862443411245165,0.9574117405447541,0.0,0.0,-0.0,0.00980665,0.7158854499999999,9.7674234
2026-03-26 20:08:13.436,1774523293.436713,0.03681092415661818,-0.008453357866432684,-0.28624125188962296,0.9574128901995101,0.0,0.0,-0.0,0.0196133,0.77472535,9.81645665
2026-03-26 20:08:13.446,1774523293.446615,0.03681092415661818,-0.008453357866432684,-0.28624125188962296,0.9574128901995101,0.0,0.0,-0.0,0.04903325,0.7649187,9.7674234
2026-03-26 20:08:13.457,1774523293.457067,0.03689447405252161,-0.0084783370957155,-0.2862405131050599,0.9574096741948198,0.0,0.0,-0.0,0.06864655,0.73549875,9.7281968
2026-03-26 20:08:13.467,1774523293.467064,0.03689447405252161,-0.0084783370957155,-0.2862405131050599,0.9574096741948198,0.0,0.0,-0.0,0.06864655,0.7551120499999999,9.738003449999999
2026-03-26 20:08:13.476,1774523293.476753,0.03691943767301267,-0.00839478269459729,-0.2862436096314622,0.9574085223615727,0.0,0.0,-0.0,0.0588399,0.784532,9.77723005
2026-03-26 20:08:13.487,1774523293.487039,0.03691943767301267,-0.00839478269459729,-0.2862436096314622,0.9574085223615727,0.0,0.0,-0.0,0.0588399,0.7649187,9.7674234
2026-03-26 20:08:13.497,1774523293.497014,0.03691943767301267,-0.00839478269459729,-0.2862436096314622,0.9574085223615727,0.0,0.0,-0.0,0.06864655,0.73549875,9.738003449999999
2026-03-26 20:08:13.507,1774523293.507071,0.03691943767301267,-0.00839478269459729,-0.2862436096314622,0.9574085223615727,0.0,0.0,-0.0,0.04903325,0.7256921,9.757616749999999
2026-03-26 20:08:13.517,1774523293.51727,0.03691943767301267,-0.00839478269459729,-0.2862436096314622,0.9574085223615727,0.0,0.0,-0.0,0.0196133,0.7453053999999999,9.757616749999999
2026-03-26 20:08:13.527,1774523293.527337,0.03691943767301267,-0.00839478269459729,-0.2862436096314622,0.9574085223615727,0.0,0.0,-0.0,0.02941995,0.73549875,9.7674234
2026-03-26 20:08:13.536,1774523293.536985,0.03689447405252161,-0.0084783370957155,-0.2862405131050599,0.9574096741948198,0.0,0.0,-0.0,0.04903325,0.7256921,9.738003449999999
2026-03-26 20:08:13.546,1774523293.54681,0.03691943767301267,-0.00839478269459729,-0.2862436096314622,0.9574085223615727,0.0,0.0,-0.0,0.0588399,0.7060787999999999,9.738003449999999
2026-03-26 20:08:13.556,1774523293.556934,0.03691943767301267,-0.00839478269459729,-0.2862436096314622,0.9574085223615727,0.0,0.0,-0.0,0.0588399,0.7158854499999999,9.757616749999999
2026-03-26 20:08:13.566,1774523293.566773,0.03691943767301267,-0.00839478269459729,-0.2862436096314622,0.9574085223615727,0.0,0.0,-0.0,0.0392266,0.73549875,9.77723005
2026-03-26 20:08:13.576,1774523293.576905,0.0368358878775306,-0.00836980319540972,-0.2862443411245165,0.9574117405447541,0.0,0.0,-0.0,0.06864655,0.7256921,9.747810099999999
2026-03-26 20:08:13.586,1774523293.586771,0.0368358878775306,-0.00836980319540972,-0.2862443411245165,0.9574117405447541,0.0,0.0,-0.0,0.0588399,0.7256921,9.738003449999999
2026-03-26 20:08:13.596,1774523293.596848,0.0368358878775306,-0.00836980319540972,-0.2862443411245165,0.9574117405447541,0.0,0.0,-0.0,0.0392266,0.73549875,9.747810099999999
2026-03-26 20:08:13.606,1774523293.606773,0.0368358878775306,-0.00836980319540972,-0.2862443411245165,0.9574117405447541,0.0,0.0,-0.0,0.02941995,0.7453053999999999,9.77723005
2026-03-26 20:08:13.616,1774523293.616947,0.03691943767301267,-0.00839478269459729,-0.2862436096314622,0.9574085223615727,0.0,0.0,-0.0,0.04903325,0.7551120499999999,9.7674234
2026-03-26 20:08:13.627,1774523293.627174,0.03691943767301267,-0.00839478269459729,-0.2862436096314622,0.9574085223615727,0.0,0.0,-0.0,0.04903325,0.73549875,9.747810099999999
2026-03-26 20:08:13.636,1774523293.63683,0.03691943767301267,-0.00839478269459729,-0.2862436096314622,0.9574085223615727,0.0,0.0,-0.0,0.04903325,0.7453053999999999,9.747810099999999
2026-03-26 20:08:13.646,1774523293.646775,0.03691943767301267,-0.00839478269459729,-0.2862436096314622,0.9574085223615727,0.0,0.0,-0.0,0.0392266,0.7649187,9.757616749999999
2026-03-26 20:08:13.656,1774523293.656846,0.03689447405252161,-0.0084783370957155,-0.2862405131050599,0.9574096741948198,0.0,0.0,-0.0,0.0392266,0.7551120499999999,9.77723005
2026-03-26 20:08:13.666,1774523293.666817,0.03689447405252161,-0.0084783370957155,-0.2862405131050599,0.9574096741948198,0.0,0.0,-0.0,0.0588399,0.7453053999999999,9.757616749999999
2026-03-26 20:08:13.676,1774523293.676849,0.03691943767301267,-0.00839478269459729,-0.2862436096314622,0.9574085223615727,0.0,0.0,-0.0,0.0588399,0.73549875,9.738003449999999
2026-03-26 20:08:13.686,1774523293.686735,0.03691943767301267,-0.00839478269459729,-0.2862436096314622,0.9574085223615727,0.0,0.0,-0.0,0.0588399,0.73549875,9.738003449999999
2026-03-26 20:08:13.696,1774523293.696794,0.03691943767301267,-0.00839478269459729,-0.2862436096314622,0.9574085223615727,0.0,0.0,-0.0,0.04903325,0.7256921,9.7674234
2026-03-26 20:08:13.707,1774523293.707065,0.03691943767301267,-0.00839478269459729,-0.2862436096314622,0.9574085223615727,0.0,0.0,-0.0,0.0588399,0.7256921,9.757616749999999
2026-03-26 20:08:13.716,1774523293.716813,0.03691943767301267,-0.00839478269459729,-0.2862436096314622,0.9574085223615727,0.0,0.0,-0.0,0.0588399,0.7256921,9.757616749999999
2026-03-26 20:08:13.726,1774523293.726795,0.03691943767301267,-0.00839478269459729,-0.2862436096314622,0.9574085223615727,0.0,0.0,-0.0,0.0392266,0.7256921,9.757616749999999
2026-03-26 20:08:13.736,1774523293.73675,0.03691943767301267,-0.00839478269459729,-0.2862436096314622,0.9574085223615727,0.0,0.0,-0.0,0.02941995,0.7256921,9.757616749999999
2026-03-26 20:08:13.746,1774523293.74677,0.0368358878775306,-0.00836980319540972,-0.2862443411245165,0.9574117405447541,0.0,0.0,-0.0,0.0392266,0.73549875,9.7674234
2026-03-26 20:08:13.756,1774523293.756829,0.0368358878775306,-0.00836980319540972,-0.2862443411245165,0.9574117405447541,0.0,0.0,-0.0,0.04903325,0.73549875,9.757616749999999
2026-03-26 20:08:13.767,1774523293.767001,0.0368358878775306,-0.00836980319540972,-0.2862443411245165,0.9574117405447541,0.0,0.0,-0.0,0.0588399,0.73549875,9.747810099999999
2026-03-26 20:08:13.777,1774523293.777085,0.03681092415661818,-0.008453357866432684,-0.28624125188962296,0.9574128901995101,0.0,0.0,-0.0,0.04903325,0.73549875,9.757616749999999
2026-03-26 20:08:13.786,1774523293.786955,0.0368358878775306,-0.00836980319540972,-0.2862443411245165,0.9574117405447541,0.0,0.0,-0.0,0.0588399,0.73549875,9.757616749999999
2026-03-26 20:08:13.796,1774523293.796819,0.0368358878775306,-0.00836980319540972,-0.2862443411245165,0.9574117405447541,0.0,0.0,-0.0,0.06864655,0.7551120499999999,9.7674234
2026-03-26 20:08:13.806,1774523293.806821,0.03691943767301267,-0.00839478269459729,-0.2862436096314622,0.9574085223615727,0.0,0.0,-0.0,0.0588399,0.7453053999999999,9.747810099999999
2026-03-26 20:08:13.816,1774523293.816824,0.03691943767301267,-0.00839478269459729,-0.2862436096314622,0.9574085223615727,0.0,0.0,-0.0,0.04903325,0.7453053999999999,9.747810099999999
2026-03-26 20:08:13.826,1774523293.826855,0.03691943767301267,-0.00839478269459729,-0.2862436096314622,0.9574085223615727,0.0,0.0,-0.0,0.02941995,0.7551120499999999,9.757616749999999
2026-03-26 20:08:13.836,1774523293.836929,0.03691943767301267,-0.00839478269459729,-0.2862436096314622,0.9574085223615727,0.0,0.0,-0.0,0.0392266,0.7551120499999999,9.7674234
2026-03-26 20:08:13.846,1774523293.846757,0.03691943767301267,-0.00839478269459729,-0.2862436096314622,0.9574085223615727,0.0,0.0,-0.0,0.04903325,0.7453053999999999,9.757616749999999
2026-03-26 20:08:13.856,1774523293.856787,0.03691943767301267,-0.00839478269459729,-0.2862436096314622,0.9574085223615727,0.0,0.0,-0.0,0.04903325,0.7453053999999999,9.757616749999999
2026-03-26 20:08:13.866,1774523293.866807,0.03691943767301267,-0.00839478269459729,-0.2862436096314622,0.9574085223615727,0.0,0.0,-0.0,0.0588399,0.7453053999999999,9.757616749999999
2026-03-26 20:08:13.876,1774523293.876801,0.03691943767301267,-0.00839478269459729,-0.2862436096314622,0.9574085223615727,0.0,0.0,-0.0,0.04903325,0.7453053999999999,9.7674234
2026-03-26 20:08:13.887,1774523293.887074,0.03691943767301267,-0.00839478269459729,-0.2862436096314622,0.9574085223615727,0.0,0.0,-0.0,0.0588399,0.7256921,9.757616749999999
2026-03-26 20:08:13.896,1774523293.896824,0.03691943767301267,-0.00839478269459729,-0.2862436096314622,0.9574085223615727,0.0,0.0,-0.0,0.04903325,0.7256921,9.747810099999999
2026-03-26 20:08:13.906,1774523293.906801,0.03691943767301267,-0.00839478269459729,-0.2862436096314622,0.9574085223615727,0.0,0.0,-0.0,0.0588399,0.7256921,9.747810099999999
2026-03-26 20:08:13.916,1774523293.916933,0.03691943767301267,-0.00839478269459729,-0.2862436096314622,0.9574085223615727,0.0,0.0,-0.0,0.04903325,0.7256921,9.757616749999999
2026-03-26 20:08:13.926,1774523293.926902,0.03691943767301267,-0.00839478269459729,-0.2862436096314622,0.9574085223615727,0.0,0.0,-0.0,0.0392266,0.73549875,9.757616749999999
2026-03-26 20:08:13.937,1774523293.937012,0.03691943767301267,-0.00839478269459729,-0.2862436096314622,0.9574085223615727,0.0,0.0,-0.0,0.04903325,0.7256921,9.757616749999999
2026-03-26 20:08:13.946,1774523293.946699,0.0368358878775306,-0.00836980319540972,-0.2862443411245165,0.9574117405447541,0.0,0.0,-0.0,0.04903325,0.7256921,9.757616749999999
2026-03-26 20:08:13.957,1774523293.957063,0.0368358878775306,-0.00836980319540972,-0.2862443411245165,0.9574117405447541,0.0,0.0,-0.0,0.04903325,0.73549875,9.757616749999999
2026-03-26 20:08:13.966,1774523293.966843,0.0368358878775306,-0.00836980319540972,-0.2862443411245165,0.9574117405447541,0.0,0.0,-0.0,0.04903325,0.7453053999999999,9.757616749999999
2026-03-26 20:08:13.976,1774523293.976743,0.0368358878775306,-0.00836980319540972,-0.2862443411245165,0.9574117405447541,0.0,0.0,-0.0,0.04903325,0.7453053999999999,9.747810099999999
2026-03-26 20:08:13.986,1774523293.986857,0.0368358878775306,-0.00836980319540972,-0.2862443411245165,0.9574117405447541,0.0,0.0,-0.0,0.0588399,0.7453053999999999,9.747810099999999
2026-03-26 20:08:13.996,1774523293.996715,0.03691943767301267,-0.00839478269459729,-0.2862436096314622,0.9574085223615727,0.0,0.0,-0.0,0.04903325,0.7453053999999999,9.757616749999999
2026-03-26 20:08:14.006,1774523294.006714,0.03691943767301267,-0.00839478269459729,-0.2862436096314622,0.9574085223615727,0.0,0.0,-0.0,0.04903325,0.7453053999999999,9.757616749999999
2026-03-26 20:08:14.016,1774523294.016712,0.03691943767301267,-0.00839478269459729,-0.2862436096314622,0.9574085223615727,0.0,0.0,-0.0,0.04903325,0.7551120499999999,9.747810099999999
2026-03-26 20:08:14.026,1774523294.026713,0.03691943767301267,-0.00839478269459729,-0.2862436096314622,0.9574085223615727,0.0,0.0,-0.0,0.0392266,0.73549875,9.747810099999999
2026-03-26 20:08:14.036,1774523294.036671,0.03691943767301267,-0.00839478269459729,-0.2862436096314622,0.9574085223615727,0.0,0.0,-0.0,0.0392266,0.7453053999999999,9.757616749999999
2026-03-26 20:08:14.046,1774523294.046729,0.03691943767301267,-0.00839478269459729,-0.2862436096314622,0.9574085223615727,0.0,0.0,-0.0,0.04903325,0.73549875,9.757616749999999
2026-03-26 20:08:14.056,1774523294.056742,0.03691943767301267,-0.00839478269459729,-0.2862436096314622,0.9574085223615727,0.0,0.0,-0.0,0.04903325,0.7256921,9.757616749999999
2026-03-26 20:08:14.066,1774523294.066679,0.03691943767301267,-0.00839478269459729,-0.2862436096314622,0.9574085223615727,0.0,0.0,-0.0,0.04903325,0.7256921,9.757616749999999
2026-03-26 20:08:14.076,1774523294.076731,0.03691943767301267,-0.00839478269459729,-0.2862436096314622,0.9574085223615727,0.0,0.0,-0.0,0.0588399,0.7256921,9.757616749999999
2026-03-26 20:08:14.086,1774523294.086729,0.03691943767301267,-0.00839478269459729,-0.2862436096314622,0.9574085223615727,0.0,0.0,-0.0,0.0588399,0.7256921,9.757616749999999
2026-03-26 20:08:14.096,1774523294.096764,0.0368358878775306,-0.00836980319540972,-0.2862443411245165,0.9574117405447541,0.0,0.0,-0.0,0.04903325,0.73549875,9.757616749999999
2026-03-26 20:08:14.106,1774523294.106709,0.0368358878775306,-0.00836980319540972,-0.2862443411245165,0.9574117405447541,0.0,0.0,-0.0,0.0588399,0.73549875,9.747810099999999
2026-03-26 20:08:14.116,1774523294.116722,0.0368358878775306,-0.00836980319540972,-0.2862443411245165,0.9574117405447541,0.0,0.0,-0.0,0.0392266,0.7256921,9.747810099999999
2026-03-26 20:08:14.127,1774523294.127014,0.0368358878775306,-0.00836980319540972,-0.2862443411245165,0.9574117405447541,0.0,0.0,-0.0,0.04903325,0.73549875,9.757616749999999
2026-03-26 20:08:14.137,1774523294.137075,0.0368358878775306,-0.00836980319540972,-0.2862443411245165,0.9574117405447541,0.0,0.0,-0.0,0.0588399,0.73549875,9.747810099999999
2026-03-26 20:08:14.146,1774523294.146788,0.0368358878775306,-0.00836980319540972,-0.2862443411245165,0.9574117405447541,0.0,0.0,-0.0,0.0392266,0.73549875,9.747810099999999
2026-03-26 20:08:14.156,1774523294.156774,0.0368358878775306,-0.00836980319540972,-0.2862443411245165,0.9574117405447541,0.0,0.0,-0.0,0.0392266,0.73549875,9.757616749999999
2026-03-26 20:08:14.166,1774523294.166715,0.03681092415661818,-0.008453357866432684,-0.28624125188962296,0.9574128901995101,0.0,0.0,-0.0,0.0392266,0.73549875,9.757616749999999
2026-03-26 20:08:14.176,1774523294.17673,0.03681092415661818,-0.008453357866432684,-0.28624125188962296,0.9574128901995101,0.0,0.0,-0.0,0.0392266,0.7551120499999999,9.747810099999999
2026-03-26 20:08:14.186,1774523294.186697,0.03689447405252161,-0.0084783370957155,-0.2862405131050599,0.9574096741948198,0.0,0.0,-0.0,0.04903325,0.7551120499999999,9.757616749999999
2026-03-26 20:08:14.196,1774523294.196718,0.03689447405252161,-0.0084783370957155,-0.2862405131050599,0.9574096741948198,0.0,0.0,-0.0,0.04903325,0.7551120499999999,9.747810099999999
2026-03-26 20:08:14.206,1774523294.206718,0.03689447405252161,-0.0084783370957155,-0.2862405131050599,0.9574096741948198,0.0,0.0,-0.0,0.04903325,0.7453053999999999,9.757616749999999
2026-03-26 20:08:14.216,1774523294.216677,0.03689447405252161,-0.0084783370957155,-0.2862405131050599,0.9574096741948198,0.0,0.0,-0.0,0.04903325,0.7453053999999999,9.757616749999999
2026-03-26 20:08:14.226,1774523294.226982,0.03689447405252161,-0.0084783370957155,-0.2862405131050599,0.9574096741948198,0.0,0.0,-0.0,0.04903325,0.73549875,9.757616749999999
2026-03-26 20:08:14.237,1774523294.23708,0.03689447405252161,-0.0084783370957155,-0.2862405131050599,0.9574096741948198,0.0,0.0,-0.0,0.04903325,0.7256921,9.747810099999999
2026-03-26 20:08:14.247,1774523294.247135,0.03689447405252161,-0.0084783370957155,-0.2862405131050599,0.9574096741948198,0.0,0.0,-0.0,0.04903325,0.73549875,9.747810099999999
2026-03-26 20:08:14.257,1774523294.257199,0.03689447405252161,-0.0084783370957155,-0.2862405131050599,0.9574096741948198,0.0,0.0,-0.0,0.0392266,0.7256921,9.7674234
2026-03-26 20:08:14.267,1774523294.267114,0.03681092415661818,-0.008453357866432684,-0.28624125188962296,0.9574128901995101,0.0,0.0,-0.0,0.0392266,0.7256921,9.757616749999999
2026-03-26 20:08:14.277,1774523294.277098,0.03681092415661818,-0.008453357866432684,-0.28624125188962296,0.9574128901995101,0.0,0.0,-0.0,0.04903325,0.73549875,9.747810099999999
2026-03-26 20:08:14.286,1774523294.286989,0.03681092415661818,-0.008453357866432684,-0.28624125188962296,0.9574128901995101,0.0,0.0,-0.0,0.0392266,0.73549875,9.747810099999999
2026-03-26 20:08:14.296,1774523294.296808,0.03681092415661818,-0.008453357866432684,-0.28624125188962296,0.9574128901995101,0.0,0.0,-0.0,0.04903325,0.7453053999999999,9.747810099999999
2026-03-26 20:08:14.306,1774523294.306855,0.03681092415661818,-0.008453357866432684,-0.28624125188962296,0.9574128901995101,0.0,0.0,-0.0,0.04903325,0.73549875,9.747810099999999
2026-03-26 20:08:14.316,1774523294.31684,0.03681092415661818,-0.008453357866432684,-0.28624125188962296,0.9574128901995101,0.0,0.0,-0.0,0.0588399,0.7453053999999999,9.757616749999999
2026-03-26 20:08:14.326,1774523294.326831,0.03681092415661818,-0.008453357866432684,-0.28624125188962296,0.9574128901995101,0.0,0.0,-0.0,0.04903325,0.73549875,9.747810099999999
2026-03-26 20:08:14.336,1774523294.336709,0.03681092415661818,-0.008453357866432684,-0.28624125188962296,0.9574128901995101,0.0,0.0,-0.0,0.0588399,0.7453053999999999,9.757616749999999
2026-03-26 20:08:14.346,1774523294.346742,0.03681092415661818,-0.008453357866432684,-0.28624125188962296,0.9574128901995101,0.0,0.0,-0.0,0.0588399,0.73549875,9.7674234
2026-03-26 20:08:14.356,1774523294.356745,0.03681092415661818,-0.008453357866432684,-0.28624125188962296,0.9574128901995101,0.0,0.0,-0.0,0.0392266,0.7453053999999999,9.757616749999999
2026-03-26 20:08:14.366,1774523294.366711,0.03689447405252161,-0.0084783370957155,-0.2862405131050599,0.9574096741948198,0.0,0.0,-0.0,0.0588399,0.7453053999999999,9.757616749999999
2026-03-26 20:08:14.376,1774523294.37668,0.03689447405252161,-0.0084783370957155,-0.2862405131050599,0.9574096741948198,0.0,0.0,-0.0,0.04903325,0.73549875,9.7674234
2026-03-26 20:08:14.386,1774523294.386841,0.03689447405252161,-0.0084783370957155,-0.2862405131050599,0.9574096741948198,0.0,0.0,-0.0,0.04903325,0.7453053999999999,9.757616749999999
2026-03-26 20:08:14.396,1774523294.39677,0.03689447405252161,-0.0084783370957155,-0.2862405131050599,0.9574096741948198,0.0,0.0,-0.0,0.0588399,0.73549875,9.7674234
2026-03-26 20:08:14.406,1774523294.406988,0.03689447405252161,-0.0084783370957155,-0.2862405131050599,0.9574096741948198,0.0,0.0,-0.0,0.04903325,0.73549875,9.747810099999999
2026-03-26 20:08:14.416,1774523294.416769,0.03689447405252161,-0.0084783370957155,-0.2862405131050599,0.9574096741948198,0.0,0.0,-0.0,0.0588399,0.73549875,9.747810099999999
2026-03-26 20:08:14.426,1774523294.426857,0.03689447405252161,-0.0084783370957155,-0.2862405131050599,0.9574096741948198,0.0,0.0,-0.0,0.04903325,0.73549875,9.757616749999999
2026-03-26 20:08:14.436,1774523294.436761,0.03681092415661818,-0.008453357866432684,-0.28624125188962296,0.9574128901995101,0.0,0.0,-0.0,0.0588399,0.73549875,9.757616749999999
2026-03-26 20:08:14.446,1774523294.446759,0.03681092415661818,-0.008453357866432684,-0.28624125188962296,0.9574128901995101,0.0,0.0,-0.0,0.04903325,0.7256921,9.757616749999999
2026-03-26 20:08:14.456,1774523294.456728,0.03681092415661818,-0.008453357866432684,-0.28624125188962296,0.9574128901995101,0.0,0.0,-0.0,0.04903325,0.73549875,9.757616749999999
2026-03-26 20:08:14.466,1774523294.466775,0.03681092415661818,-0.008453357866432684,-0.28624125188962296,0.9574128901995101,0.0,0.0,-0.0,0.0392266,0.7256921,9.757616749999999
2026-03-26 20:08:14.476,1774523294.476682,0.03681092415661818,-0.008453357866432684,-0.28624125188962296,0.9574128901995101,0.0,0.0,-0.0,0.04903325,0.73549875,9.757616749999999
2026-03-26 20:08:14.486,1774523294.486733,0.03681092415661818,-0.008453357866432684,-0.28624125188962296,0.9574128901995101,0.0,0.0,-0.0,0.0588399,0.73549875,9.747810099999999
2026-03-26 20:08:14.496,1774523294.496727,0.03681092415661818,-0.008453357866432684,-0.28624125188962296,0.9574128901995101,0.0,0.0,-0.0,0.04903325,0.73549875,9.747810099999999
2026-03-26 20:08:14.506,1774523294.506704,0.03681092415661818,-0.008453357866432684,-0.28624125188962296,0.9574128901995101,0.0,0.0,-0.0,0.04903325,0.7453053999999999,9.757616749999999
2026-03-26 20:08:14.516,1774523294.516695,0.03681092415661818,-0.008453357866432684,-0.28624125188962296,0.9574128901995101,0.0,0.0,-0.0,0.0392266,0.7453053999999999,9.757616749999999
2026-03-26 20:08:14.526,1774523294.526723,0.03681092415661818,-0.008453357866432684,-0.28624125188962296,0.9574128901995101,0.0,0.0,-0.0,0.0588399,0.73549875,9.757616749999999
2026-03-26 20:08:14.536,1774523294.536827,0.03681092415661818,-0.008453357866432684,-0.28624125188962296,0.9574128901995101,0.0,0.0,-0.0,0.04903325,0.73549875,9.757616749999999
2026-03-26 20:08:14.546,1774523294.546732,0.03681092415661818,-0.008453357866432684,-0.28624125188962296,0.9574128901995101,0.0,0.0,-0.0,0.04903325,0.7551120499999999,9.747810099999999
2026-03-26 20:08:14.556,1774523294.556904,0.03681092415661818,-0.008453357866432684,-0.28624125188962296,0.9574128901995101,0.0,0.0,-0.0,0.04903325,0.7453053999999999,9.747810099999999
2026-03-26 20:08:14.566,1774523294.566806,0.03689447405252161,-0.0084783370957155,-0.2862405131050599,0.9574096741948198,0.0,0.0,-0.0,0.0588399,0.7453053999999999,9.757616749999999
2026-03-26 20:08:14.576,1774523294.576762,0.03689447405252161,-0.0084783370957155,-0.2862405131050599,0.9574096741948198,0.0,0.0,-0.0,0.04903325,0.73549875,9.747810099999999
2026-03-26 20:08:14.586,1774523294.586752,0.03689447405252161,-0.0084783370957155,-0.2862405131050599,0.9574096741948198,0.0,0.0,-0.0,0.0588399,0.73549875,9.757616749999999
2026-03-26 20:08:14.596,1774523294.596745,0.03689447405252161,-0.0084783370957155,-0.2862405131050599,0.9574096741948198,0.0,0.0,-0.0,0.04903325,0.73549875,9.757616749999999
2026-03-26 20:08:14.606,1774523294.606664,0.03689447405252161,-0.0084783370957155,-0.2862405131050599,0.9574096741948198,0.0,0.0,-0.0,0.0392266,0.7453053999999999,9.747810099999999
2026-03-26 20:08:14.616,1774523294.616657,0.03681092415661818,-0.008453357866432684,-0.28624125188962296,0.9574128901995101,0.0,0.0,-0.0,0.0588399,0.7256921,9.757616749999999
2026-03-26 20:08:14.626,1774523294.626673,0.03681092415661818,-0.008453357866432684,-0.28624125188962296,0.9574128901995101,0.0,0.0,-0.0,0.04903325,0.7256921,9.747810099999999
2026-03-26 20:08:14.636,1774523294.636656,0.03681092415661818,-0.008453357866432684,-0.28624125188962296,0.9574128901995101,0.0,0.0,-0.0,0.04903325,0.73549875,9.757616749999999
2026-03-26 20:08:14.646,1774523294.646701,0.03681092415661818,-0.008453357866432684,-0.28624125188962296,0.9574128901995101,0.0,0.0,-0.0,0.06864655,0.7453053999999999,9.747810099999999
2026-03-26 20:08:14.656,1774523294.656725,0.03681092415661818,-0.008453357866432684,-0.28624125188962296,0.9574128901995101,0.0,0.0,-0.0,0.04903325,0.73549875,9.757616749999999
2026-03-26 20:08:14.666,1774523294.666703,0.03681092415661818,-0.008453357866432684,-0.28624125188962296,0.9574128901995101,0.0,0.0,-0.0,0.04903325,0.73549875,9.757616749999999
2026-03-26 20:08:14.676,1774523294.676713,0.03681092415661818,-0.008453357866432684,-0.28624125188962296,0.9574128901995101,0.0,0.0,-0.0,0.04903325,0.73549875,9.757616749999999
2026-03-26 20:08:14.686,1774523294.686775,0.03681092415661818,-0.008453357866432684,-0.28624125188962296,0.9574128901995101,0.0,0.0,-0.0,0.04903325,0.7453053999999999,9.7674234
2026-03-26 20:08:14.696,1774523294.696687,0.03681092415661818,-0.008453357866432684,-0.28624125188962296,0.9574128901995101,0.0,0.0,-0.0,0.04903325,0.73549875,9.757616749999999
2026-03-26 20:08:14.706,1774523294.706758,0.03681092415661818,-0.008453357866432684,-0.28624125188962296,0.9574128901995101,0.0,0.0,-0.0,0.04903325,0.7453053999999999,9.747810099999999
2026-03-26 20:08:14.716,1774523294.716739,0.03681092415661818,-0.008453357866432684,-0.28624125188962296,0.9574128901995101,0.0,0.0,-0.0,0.0588399,0.7453053999999999,9.757616749999999
2026-03-26 20:08:14.726,1774523294.726654,0.03681092415661818,-0.008453357866432684,-0.28624125188962296,0.9574128901995101,0.0,0.0,-0.0,0.0588399,0.73549875,9.7674234
2026-03-26 20:08:14.736,1774523294.73673,0.03681092415661818,-0.008453357866432684,-0.28624125188962296,0.9574128901995101,0.0,0.0,-0.0,0.04903325,0.73549875,9.747810099999999
2026-03-26 20:08:14.746,1774523294.746717,0.03681092415661818,-0.008453357866432684,-0.28624125188962296,0.9574128901995101,0.0,0.0,-0.0,0.0392266,0.73549875,9.757616749999999
2026-03-26 20:08:14.756,1774523294.756705,0.03681092415661818,-0.008453357866432684,-0.28624125188962296,0.9574128901995101,0.0,0.0,-0.0,0.04903325,0.73549875,9.747810099999999
2026-03-26 20:08:14.766,1774523294.76672,0.03681092415661818,-0.008453357866432684,-0.28624125188962296,0.9574128901995101,0.0,0.0,-0.0,0.0588399,0.7453053999999999,9.757616749999999
2026-03-26 20:08:14.776,1774523294.776897,0.03681092415661818,-0.008453357866432684,-0.28624125188962296,0.9574128901995101,0.0,0.0,-0.0,0.0392266,0.7256921,9.757616749999999
2026-03-26 20:08:14.786,1774523294.786719,0.03681092415661818,-0.008453357866432684,-0.28624125188962296,0.9574128901995101,0.0,0.0,-0.0,0.0588399,0.7256921,9.757616749999999
2026-03-26 20:08:14.796,1774523294.796686,0.03681092415661818,-0.008453357866432684,-0.28624125188962296,0.9574128901995101,0.0,0.0,-0.0,0.0588399,0.73549875,9.757616749999999
2026-03-26 20:08:14.806,1774523294.806763,0.03681092415661818,-0.008453357866432684,-0.28624125188962296,0.9574128901995101,0.0,0.0,-0.0,0.04903325,0.7453053999999999,9.757616749999999
2026-03-26 20:08:14.816,1774523294.816671,0.03681092415661818,-0.008453357866432684,-0.28624125188962296,0.9574128901995101,0.0,0.0,-0.0,0.0588399,0.73549875,9.738003449999999
2026-03-26 20:08:14.826,1774523294.826674,0.03681092415661818,-0.008453357866432684,-0.28624125188962296,0.9574128901995101,0.0,0.0,-0.0,0.0588399,0.73549875,9.7674234
2026-03-26 20:08:14.836,1774523294.836713,0.03681092415661818,-0.008453357866432684,-0.28624125188962296,0.9574128901995101,0.0,0.0,-0.0,0.04903325,0.7453053999999999,9.757616749999999
2026-03-26 20:08:14.846,1774523294.846691,0.03681092415661818,-0.008453357866432684,-0.28624125188962296,0.9574128901995101,0.0,0.0,-0.0,0.04903325,0.73549875,9.7674234
2026-03-26 20:08:14.856,1774523294.85675,0.03681092415661818,-0.008453357866432684,-0.28624125188962296,0.9574128901995101,0.0,0.0,-0.0,0.0588399,0.73549875,9.757616749999999
2026-03-26 20:08:14.866,1774523294.866673,0.03681092415661818,-0.008453357866432684,-0.28624125188962296,0.9574128901995101,0.0,0.0,-0.0,0.0588399,0.7453053999999999,9.757616749999999
2026-03-26 20:08:14.876,1774523294.876679,0.03681092415661818,-0.008453357866432684,-0.28624125188962296,0.9574128901995101,0.0,0.0,-0.0,0.04903325,0.73549875,9.747810099999999
2026-03-26 20:08:14.886,1774523294.88675,0.03681092415661818,-0.008453357866432684,-0.28624125188962296,0.9574128901995101,0.0,0.0,-0.0,0.0392266,0.7453053999999999,9.757616749999999
2026-03-26 20:08:14.896,1774523294.896683,0.03681092415661818,-0.008453357866432684,-0.28624125188962296,0.9574128901995101,0.0,0.0,-0.0,0.0588399,0.7453053999999999,9.757616749999999
2026-03-26 20:08:14.906,1774523294.906712,0.03681092415661818,-0.008453357866432684,-0.28624125188962296,0.9574128901995101,0.0,0.0,-0.0,0.0588399,0.7551120499999999,9.757616749999999
2026-03-26 20:08:14.916,1774523294.916816,0.03681092415661818,-0.008453357866432684,-0.28624125188962296,0.9574128901995101,0.0,0.0,-0.0,0.04903325,0.7649187,9.757616749999999
2026-03-26 20:08:14.926,1774523294.926723,0.03681092415661818,-0.008453357866432684,-0.28624125188962296,0.9574128901995101,0.0,0.0,-0.0,0.04903325,0.73549875,9.747810099999999
2026-03-26 20:08:14.936,1774523294.936673,0.03689447405252161,-0.0084783370957155,-0.2862405131050599,0.9574096741948198,0.0,0.0,-0.0,0.04903325,0.7453053999999999,9.757616749999999
2026-03-26 20:08:14.946,1774523294.946798,0.03689447405252161,-0.0084783370957155,-0.2862405131050599,0.9574096741948198,0.0,0.0,-0.0,0.0588399,0.73549875,9.757616749999999
2026-03-26 20:08:14.956,1774523294.956755,0.03681092415661818,-0.008453357866432684,-0.28624125188962296,0.9574128901995101,0.0,0.0,-0.0,0.04903325,0.7256921,9.757616749999999
2026-03-26 20:08:14.966,1774523294.966676,0.03681092415661818,-0.008453357866432684,-0.28624125188962296,0.9574128901995101,0.0,0.0,-0.0,0.0588399,0.73549875,9.757616749999999
2026-03-26 20:08:14.976,1774523294.976733,0.03681092415661818,-0.008453357866432684,-0.28624125188962296,0.9574128901995101,0.0,0.0,-0.0,0.0588399,0.73549875,9.7674234
2026-03-26 20:08:14.986,1774523294.986799,0.03681092415661818,-0.008453357866432684,-0.28624125188962296,0.9574128901995101,0.0,0.0,-0.0,0.04903325,0.7256921,9.747810099999999
2026-03-26 20:08:14.996,1774523294.996887,0.03681092415661818,-0.008453357866432684,-0.28624125188962296,0.9574128901995101,0.0,0.0,-0.0,0.04903325,0.7256921,9.757616749999999
2026-03-26 20:08:15.006,1774523295.00667,0.03681092415661818,-0.008453357866432684,-0.28624125188962296,0.9574128901995101,0.0,0.0,-0.0,0.04903325,0.7256921,9.757616749999999
2026-03-26 20:08:15.016,1774523295.016669,0.03681092415661818,-0.008453357866432684,-0.28624125188962296,0.9574128901995101,0.0,0.0,-0.0,0.04903325,0.7256921,9.7674234
2026-03-26 20:08:15.026,1774523295.026709,0.03681092415661818,-0.008453357866432684,-0.28624125188962296,0.9574128901995101,0.0,0.0,-0.0,0.04903325,0.73549875,9.7674234
2026-03-26 20:08:15.036,1774523295.036731,0.03681092415661818,-0.008453357866432684,-0.28624125188962296,0.9574128901995101,0.0,0.0,-0.0,0.0588399,0.73549875,9.757616749999999
2026-03-26 20:08:15.046,1774523295.046832,0.03681092415661818,-0.008453357866432684,-0.28624125188962296,0.9574128901995101,0.0,0.0,-0.0,0.0588399,0.7453053999999999,9.757616749999999
2026-03-26 20:08:15.056,1774523295.056845,0.03681092415661818,-0.008453357866432684,-0.28624125188962296,0.9574128901995101,0.0,0.0,-0.0,0.04903325,0.7256921,9.757616749999999
2026-03-26 20:08:15.066,1774523295.066824,0.03681092415661818,-0.008453357866432684,-0.28624125188962296,0.9574128901995101,0.0,0.0,-0.0,0.04903325,0.73549875,9.747810099999999
2026-03-26 20:08:15.076,1774523295.076739,0.03681092415661818,-0.008453357866432684,-0.28624125188962296,0.9574128901995101,0.0,0.0,-0.0,0.04903325,0.73549875,9.7674234
2026-03-26 20:08:15.086,1774523295.086761,0.03681092415661818,-0.008453357866432684,-0.28624125188962296,0.9574128901995101,0.0,0.0,-0.0,0.04903325,0.7453053999999999,9.7674234
2026-03-26 20:08:15.096,1774523295.096797,0.03681092415661818,-0.008453357866432684,-0.28624125188962296,0.9574128901995101,0.0,0.0,-0.0,0.06864655,0.7551120499999999,9.757616749999999
2026-03-26 20:08:15.106,1774523295.106726,0.0368358878775306,-0.00836980319540972,-0.2862443411245165,0.9574117405447541,0.0,0.0,-0.0,0.0588399,0.7551120499999999,9.757616749999999
2026-03-26 20:08:15.116,1774523295.116712,0.0368358878775306,-0.00836980319540972,-0.2862443411245165,0.9574117405447541,0.0,0.0,-0.0,0.0588399,0.7551120499999999,9.747810099999999
2026-03-26 20:08:15.126,1774523295.126809,0.0368358878775306,-0.00836980319540972,-0.2862443411245165,0.9574117405447541,0.0,0.0,-0.0,0.0588399,0.7453053999999999,9.757616749999999
2026-03-26 20:08:15.136,1774523295.136822,0.0368358878775306,-0.00836980319540972,-0.2862443411245165,0.9574117405447541,0.0,0.0,-0.0,0.0588399,0.7551120499999999,9.747810099999999
2026-03-26 20:08:15.146,1774523295.146745,0.03691943767301267,-0.00839478269459729,-0.2862436096314622,0.9574085223615727,0.0,0.0,-0.0,0.04903325,0.73549875,9.757616749999999
2026-03-26 20:08:15.156,1774523295.156892,0.03691943767301267,-0.00839478269459729,-0.2862436096314622,0.9574085223615727,0.0,0.0,-0.0,0.04903325,0.7453053999999999,9.7674234
2026-03-26 20:08:15.166,1774523295.16671,0.03691943767301267,-0.00839478269459729,-0.2862436096314622,0.9574085223615727,0.0,0.0,-0.0,0.0588399,0.7551120499999999,9.7870367
2026-03-26 20:08:15.176,1774523295.176716,0.03691943767301267,-0.00839478269459729,-0.2862436096314622,0.9574085223615727,0.0,0.0,-0.0,0.0588399,0.7551120499999999,9.747810099999999
2026-03-26 20:08:15.186,1774523295.186728,0.03691943767301267,-0.00839478269459729,-0.2862436096314622,0.9574085223615727,0.0,0.0,-0.0,0.02941995,0.7649187,9.71839015
2026-03-26 20:08:15.196,1774523295.19671,0.03689447405252161,-0.0084783370957155,-0.2862405131050599,0.9574096741948198,0.0,0.0,-0.0,0.02941995,0.7453053999999999,9.738003449999999
2026-03-26 20:08:15.206,1774523295.20677,0.03689447405252161,-0.0084783370957155,-0.2862405131050599,0.9574096741948198,0.0,0.0,-0.0,0.0392266,0.784532,9.757616749999999
2026-03-26 20:08:15.216,1774523295.216689,0.03689447405252161,-0.0084783370957155,-0.2862405131050599,0.9574096741948198,0.0,0.0,-0.0,0.02941995,0.784532,9.747810099999999
2026-03-26 20:08:15.226,1774523295.226687,0.036978023667457546,-0.008503316260432084,-0.2862397721406507,0.9574064508990381,0.0,0.0,-0.0,0.0392266,0.784532,9.7674234
2026-03-26 20:08:15.236,1774523295.236801,0.036978023667457546,-0.008503316260432084,-0.2862397721406507,0.9574064508990381,0.0,0.0,-0.0,-0.00980665,0.73549875,9.7674234
2026-03-26 20:08:15.246,1774523295.246731,0.036978023667457546,-0.008503316260432084,-0.2862397721406507,0.9574064508990381,0.0,0.0,-0.0,0.18632634999999997,0.7649187,9.67916355
2026-03-26 20:08:15.256,1774523295.256705,0.036978023667457546,-0.008503316260432084,-0.2862397721406507,0.9574064508990381,0.005585053606381855,-0.0010471975511965976,0.0008726646259971648,-0.00980665,0.83356525,9.7674234
2026-03-26 20:08:15.266,1774523295.266679,0.037061573000789744,-0.00852829536039222,-0.28623902899640097,0.9574032203121894,0.00767944870877505,-0.004363323129985824,-0.00017453292519943296,0.06864655,0.8531785499999999,9.7281968
2026-03-26 20:08:15.276,1774523295.276702,0.03722867082009779,-0.008578253365282205,-0.28623753616840264,0.957396737265389,0.005585053606381855,-0.004363323129985824,0.0008726646259971648,0.0980665,1.0787315,9.836069949999999
2026-03-26 20:08:15.286,1774523295.286759,0.03742073051932634,-0.008544658340536252,-0.28623917489606826,0.9573890601506064,0.0,0.0,-0.0,0.08825984999999999,1.10815145,9.845876599999999
2026-03-26 20:08:15.296,1774523295.296704,0.037562863051473355,-0.008678168589614756,-0.28623452435456975,0.9573836836800697,0.0,0.0,-0.0,-0.0196133,1.0395048999999998,9.7085835
2026-03-26 20:08:15.306,1774523295.306709,0.03772995745336079,-0.008728125806013728,-0.286233005368827,0.9573771131419484,0.0,0.0,-0.0,0.00980665,1.14737805,9.747810099999999
2026-03-26 20:08:15.316,1774523295.316844,0.03781350422362756,-0.008753104314605612,-0.28623224260626934,0.9573738169366098,0.0,0.0,-0.0,0.0588399,1.16699135,9.77723005
2026-03-26 20:08:15.326,1774523295.326809,0.03789705070592801,-0.00877808275653879,-0.2862314776639283,0.9573705134404525,0.0,0.0,-0.0,-0.0196133,1.2944778,9.7674234
2026-03-26 20:08:15.336,1774523295.336721,0.03789705070592801,-0.00877808275653879,-0.2862314776639283,0.9573705134404525,0.0,0.0,-0.0,-0.00980665,1.36312435,9.757616749999999
2026-03-26 20:08:15.346,1774523295.346705,0.03789705070592801,-0.00877808275653879,-0.2862314776639283,0.9573705134404525,0.0,0.0,-0.0,-0.10787314999999999,1.3827376499999997,9.7085835
2026-03-26 20:08:15.356,1774523295.35673,0.03789705070592801,-0.00877808275653879,-0.2862314776639283,0.9573705134404525,0.0,0.0,-0.0,-0.06864655,1.4906107999999998,9.62032365
2026-03-26 20:08:15.366,1774523295.366723,0.03789705070592801,-0.00877808275653879,-0.2862314776639283,0.9573705134404525,0.0,0.0,-0.0,-0.0196133,1.32389775,9.669356899999999
2026-03-26 20:08:15.376,1774523295.376718,0.03789705070592801,-0.00877808275653879,-0.2862314776639283,0.9573705134404525,0.0,0.0,-0.0,-0.1569064,1.32389775,9.659550249999999
2026-03-26 20:08:15.386,1774523295.386725,0.03789705070592801,-0.00877808275653879,-0.2862314776639283,0.9573705134404525,0.0,0.0,-0.0,0.04903325,1.4219642499999998,9.738003449999999
2026-03-26 20:08:15.396,1774523295.39676,0.03789705070592801,-0.00877808275653879,-0.2862314776639283,0.9573705134404525,0.00034906585039886593,-0.0010471975511965976,-0.00767944870877505,-0.12748644999999997,1.3337044,9.7674234
2026-03-26 20:08:15.406,1774523295.406816,0.03792201310653451,-0.008694531643908673,-0.286234661686581,0.9573693354659994,-0.0008726646259971648,-0.003141592653589793,-0.005585053606381855,-0.0,1.2748645,9.6889702
2026-03-26 20:08:15.416,1774523295.416917,0.03792277170315775,-0.008691222290868085,-0.28615111436147883,0.9573943105069743,0.0013962634015954637,-0.0010471975511965976,-0.008726646259971648,0.1176798,1.2944778,9.77723005
2026-03-26 20:08:15.426,1774523295.426724,0.03792277170315775,-0.008691222290868085,-0.28615111436147883,0.9573943105069743,0.004537856055185257,-0.0010471975511965976,-0.00767944870877505,-0.04903325,1.3925442999999997,9.836069949999999
2026-03-26 20:08:15.436,1774523295.436881,0.03792353001098257,-0.00868791287164005,-0.286067564857211,0.9574192782569747,0.0066322511575784525,0.003141592653589793,-0.012042771838760872,0.0588399,1.5494507,9.826263299999999
2026-03-26 20:08:15.446,1774523295.446702,0.03800708046011268,-0.008712876942976847,-0.2860668056045238,0.9574159651590832,0.009773843811168246,0.0010471975511965976,-0.015184364492350668,-0.10787314999999999,1.5494507,10.0616229
2026-03-26 20:08:15.456,1774523295.456691,0.038008600565123785,-0.00870624332337483,-0.28589970063929365,0.9574658786529352,0.008726646259971648,-0.0010471975511965976,-0.01832595714594046,0.18632634999999997,1.67693715,9.7281968
2026-03-26 20:08:15.466,1774523295.466705,0.03809291687584173,-0.008727868544856974,-0.2858153843285758,0.9574875038744174,0.00767944870877505,0.0010471975511965976,-0.01937315469713706,-0.22555294999999997,1.65732385,9.80665
2026-03-26 20:08:15.476,1774523295.476691,0.038093678381007634,-0.008724544277522072,-0.28573182669293096,0.9575124423260905,0.004537856055185257,-0.004363323129985824,-0.022689280275926284,-0.10787314999999999,1.8828768,9.855683249999998
2026-03-26 20:08:15.486,1774523295.48669,0.03809520052103379,-0.008717895543553976,-0.2855647048943608,0.9575622973536242,-0.0006981317007977319,0.0,-0.026878070480712675,0.0980665,1.85345685,9.60071035
2026-03-26 20:08:15.496,1774523295.496699,0.03809596115588246,-0.00871457107697141,-0.2854811407327081,0.9575872139291051,-0.0029670597283903604,0.0010471975511965976,-0.027925268031909273,-0.12748644999999997,1.63771055,9.62032365
2026-03-26 20:08:15.506,1774523295.506777,0.03812161048401159,-0.008627674170235095,-0.2854007718591503,0.9576109363800723,-0.004014257279586958,-0.0041887902047863905,-0.025830872929516076,0.00980665,1.5298374,9.60071035
2026-03-26 20:08:15.516,1774523295.516734,0.03803879360830883,-0.008599448743420316,-0.2853179549834475,0.957639161806887,-0.004014257279586958,-0.003141592653589793,-0.026878070480712675,0.00980665,1.34351105,9.54187045
2026-03-26 20:08:15.526,1774523295.526799,0.03804029391588154,-0.008592809590557412,-0.28515081107445944,0.9576889445982509,-0.005061454830783556,-0.0041887902047863905,-0.02897246558310587,0.0392266,1.4219642499999998,9.836069949999999
2026-03-26 20:08:15.536,1774523295.536803,0.03806590325843046,-0.008505908515203584,-0.285070424273825,0.9577126342143515,-0.007155849933176751,-0.003141592653589793,-0.030019663134302467,0.16671305,1.2552512,9.77723005
2026-03-26 20:08:15.546,1774523295.546793,0.03798380656052408,-0.008474402099565844,-0.28490400816117983,0.9577656921616694,-0.006108652381980153,0.0020943951023931952,-0.025830872929516076,0.26477955,1.32389775,9.7281968
2026-03-26 20:08:15.556,1774523295.556834,0.03796045449407603,-0.008551362896923181,-0.2847336606424194,0.9578165902636976,-0.0029670597283903604,0.006457718232379019,-0.022689280275926284,0.16671305,1.30428445,9.7281968
2026-03-26 20:08:15.566,1774523295.566739,0.037961200596722804,-0.008548050189783836,-0.2846500742926884,0.9578414343159181,-0.0006981317007977319,0.004363323129985824,-0.015184364492350668,0.1569064,1.5004174499999998,9.5124505
2026-03-26 20:08:15.576,1774523295.576694,0.03796194641027851,-0.008544737417547358,-0.2845664857752231,0.957866271073759,0.0024434609527920616,0.009599310885968814,-0.019547687622336492,0.0196133,1.5200307499999999,9.7674234
2026-03-26 20:08:15.586,1774523295.586725,0.03796194641027851,-0.008544737417547358,-0.2845664857752231,0.957866271073759,0.004537856055185257,-0.007504915783575617,-0.016231562043547264,-0.08825984999999999,1.4023509499999998,9.855683249999998
2026-03-26 20:08:15.596,1774523295.596759,0.03807109211967221,-0.008482653792571784,-0.28448533776586893,0.9578865951278838,0.0066322511575784525,-0.012915436464758038,-0.016231562043547264,0.04903325,1.5298374,9.581097049999999
2026-03-26 20:08:15.606,1774523295.606688,0.03807183222589723,-0.008479331430739858,-0.2844017453080066,0.9579114175095789,0.008726646259971648,-0.008552113334772215,-0.016231562043547264,0.3334261,1.4808041499999998,9.6301303
2026-03-26 20:08:15.616,1774523295.616766,0.038180961180116255,-0.008417219725520671,-0.284320604406517,0.9579317086960676,0.010995574287564275,-0.007504915783575617,-0.016231562043547264,-0.26477955,1.67693715,9.7674234
2026-03-26 20:08:15.626,1774523295.626697,0.03818169557572337,-0.008413887776053657,-0.2842370080123805,0.9579565167018932,0.008726646259971648,-0.008552113334772215,-0.021467549799530253,-0.00980665,1.765197,9.738003449999999
2026-03-26 20:08:15.636,1774523295.636796,0.03829080776502674,-0.008351747996408792,-0.28415587422933225,0.9579767750248803,0.00767944870877505,-0.007504915783575617,-0.026878070480712675,-0.2745862,1.67693715,9.6889702
2026-03-26 20:08:15.646,1774523295.646958,0.038316307448286756,-0.00826479943874536,-0.2840754716621035,0.9580003549444641,-0.004014257279586958,-0.01064650843716541,-0.02897246558310587,-0.20593965,1.96133,9.69877685
2026-03-26 20:08:15.657,1774523295.657007,0.03823414357092507,-0.008233336154298334,-0.283908984307111,0.9580532610825313,-0.012566370614359171,-0.013788101090755204,-0.030019663134302467,-0.44129925,1.57887065,9.62032365
2026-03-26 20:08:15.666,1774523295.666708,0.0381767113257623,-0.008118285456804746,-0.28374566640495896,0.9581049154189728,-0.014660765716752368,-0.0020943951023931952,-0.035430183815484885,0.10787314999999999,1.4513842,9.875296549999998
2026-03-26 20:08:15.676,1774523295.676693,0.03817741963444946,-0.008114953879345747,-0.2836620548978737,0.9581296732513335,-0.013613568165555772,-0.007504915783575617,-0.024783675378319478,-0.12748644999999997,1.0296982499999998,10.208722649999999
2026-03-26 20:08:15.686,1774523295.686729,0.03820355493372674,-0.008024667719286931,-0.2834980049908722,0.9581779449896644,-0.007155849933176751,0.008552113334772215,-0.031241393610698498,0.57859235,1.06892485,9.9439431
2026-03-26 20:08:15.696,1774523295.69669,0.03815554471219852,-0.008185254022948856,-0.28332440531573666,0.9582298457973325,0.005585053606381855,0.024609142453120045,-0.033510321638291124,-0.2353596,1.1179581,10.149882749999998
2026-03-26 20:08:15.706,1774523295.706714,0.038239882206002246,-0.00820664168237287,-0.2832400678219329,0.9582512334567563,0.01832595714594046,0.005235987755982988,-0.028099800957108706,-0.3138128,1.3533177,9.79684335
2026-03-26 20:08:15.716,1774523295.716711,0.03832494131517373,-0.008224670171065266,-0.28307210045792564,0.9582973127459472,0.022689280275926284,0.01064650843716541,-0.0439822971502571,-0.04903325,1.5102240999999998,9.1790244
2026-03-26 20:08:15.726,1774523295.726704,0.038410007587908856,-0.00824266915518014,-0.28290412348277627,0.9583433552953435,0.021642082724729686,0.007504915783575617,-0.045029494701453704,0.2745862,1.7357770499999998,9.07115125
2026-03-26 20:08:15.736,1774523295.736694,0.038471155016534954,-0.008340922390956334,-0.2826492864250191,0.9584152441028831,0.00034906585039886593,0.003141592653589793,-0.05253441048502932,-0.45110589999999995,2.10842975,9.7674234
2026-03-26 20:08:15.746,1774523295.746827,0.038497962177387816,-0.00824720081144464,-0.2824015786896491,0.9584879962422889,-0.011344640137963142,-0.008552113334772215,-0.053581608036225914,-0.16671305,1.6671305,9.738003449999999
2026-03-26 20:08:15.756,1774523295.756939,0.038441072261565117,-0.008128843110997647,-0.282154560534652,0.9585640353375225,-0.019896753472735354,-0.003141592653589793,-0.059864793343405505,-0.0588399,1.9122967499999999,9.610517
2026-03-26 20:08:15.766,1774523295.766772,0.03827588461393794,-0.008069577400124947,-0.2819050120912172,0.9586445653814841,-0.01884955592153876,0.0022689280275926286,-0.06213372137099813,0.0588399,1.3337044,9.8851032
2026-03-26 20:08:15.776,1774523295.776994,0.03827869909587805,-0.00805621610455698,-0.2815703648429324,0.9587429103882967,0.0024434609527920616,-0.008552113334772215,-0.06213372137099813,0.18632634999999997,1.0983448,9.99297635
2026-03-26 20:08:15.786,1774523295.786987,0.03838900882704342,-0.007987066068403626,-0.2813218506117516,0.9588120290991742,0.01832595714594046,-0.0054105206811824215,-0.07592182246175333,0.3138128,1.9417167,9.7674234
2026-03-26 20:08:15.796,1774523295.796947,0.038476172879342095,-0.007994828364791038,-0.280902766563993,0.9589313336087582,0.021642082724729686,0.0010471975511965976,-0.09616764178488756,-0.6080123,1.3533177,10.34601575
2026-03-26 20:08:15.806,1774523295.806849,0.03861157853232465,-0.007838487496062183,-0.2805737403306417,0.9590235035461278,0.015184364492350668,-0.03752457891787808,-0.0778416846389471,0.37265269999999995,1.8240368999999999,10.0420096
2026-03-26 20:08:15.816,1774523295.816822,0.03866317904267247,-0.007657597916556746,-0.2802453718435889,0.9591188932247718,-0.009250245035569947,-0.009599310885968814,-0.07592182246175333,1.0983448,1.5984839499999999,9.394770699999999
2026-03-26 20:08:15.827,1774523295.827175,0.03855841010328222,-0.007700024186588264,-0.2798243186789101,0.9592456980949753,-0.02199114857512855,0.020420352248333655,-0.08237954069413235,-0.5295591,1.1179581,10.051816249999998
2026-03-26 20:08:15.836,1774523295.836735,0.03847670812786032,-0.007665531963035557,-0.2795738491642362,0.9593222844356634,-0.010297442586766544,0.013962634015954637,-0.06859143960337716,0.55897905,1.2062179499999999,9.218250999999999
2026-03-26 20:08:15.846,1774523295.846822,0.03853876064322845,-0.0077602001093384065,-0.2792350961184895,0.9594176902257143,0.01937315469713706,0.02129301687433082,-0.07609635538695278,-0.8041453,1.0591182,9.14960445
2026-03-26 20:08:15.856,1774523295.856841,0.038649517063719184,-0.007687346110207669,-0.2789027103430788,0.9595104990065547,0.033335788713091695,-0.015009831567151233,-0.08133234314293576,-0.53936575,1.5984839499999999,10.24794925
2026-03-26 20:08:15.866,1774523295.866993,0.03884396752689566,-0.007638726000271342,-0.278569638628644,0.9595997876647165,0.020420352248333655,-0.026878070480712675,-0.0747000919853573,0.04903325,2.0397831999999996,10.24794925
2026-03-26 20:08:15.876,1774523295.876825,0.03897889493672351,-0.007481935312711565,-0.27824044320320396,0.9596910555796448,0.004537856055185257,-0.031066860685499065,-0.07696902001294993,0.3334261,1.4023509499999998,10.463695549999999
2026-03-26 20:08:15.886,1774523295.886845,0.03892197428845864,-0.007360312152357228,-0.2779092972836517,0.9597902521935797,-0.019896753472735354,0.007504915783575617,-0.08342673824532895,0.9512450499999999,1.569064,10.2577559
2026-03-26 20:08:15.896,1774523295.896957,0.03881657667154153,-0.007406275804915553,-0.27757168156988316,0.9598918595574563,-0.014486232791552934,0.04066617157146788,-0.08569566627292158,0.17651969999999997,1.0395048999999998,9.414383999999998
2026-03-26 20:08:15.906,1774523295.906806,0.03879564246306336,-0.007473122051662525,-0.2771496118085291,0.960014137003753,0.010995574287564275,0.0010471975511965976,-0.07487462491055674,-0.99047165,0.5197524499999999,9.3359308
2026-03-26 20:08:15.916,1774523295.916843,0.0389302992494796,-0.007316151846260495,-0.2768202711794965,0.9601049125937324,0.033335788713091695,-0.03647738136668149,-0.0757472895365539,-0.36284605,1.34351105,8.9044382
2026-03-26 20:08:15.926,1774523295.926946,0.03914801495204164,-0.007186634098821341,-0.2765740853858182,0.9601679855674434,0.01937315469713706,-0.024609142453120045,-0.06841690667817772,0.7060787999999999,2.1182364,9.571290399999999
2026-03-26 20:08:15.936,1774523295.936884,0.039173982532982966,-0.007092580616374744,-0.27632593065341526,0.960239071503149,0.005585053606381855,-0.025656340004316644,-0.061959188445798695,-1.85345685,1.30428445,10.983448000000001
2026-03-26 20:08:15.946,1774523295.94689,0.03922396817933629,-0.006914703261330492,-0.27608097781974883,0.960308784134127,-0.006108652381980153,0.004363323129985824,-0.06318091892219473,1.7063570999999997,1.7161637499999998,9.306510849999999
2026-03-26 20:08:15.956,1774523295.956878,0.03917830783465144,-0.007068649270371173,-0.2757393024643705,0.9604076902384571,-0.009250245035569947,0.05777039824101231,-0.07731808586334879,-0.67665885,0.9218251,10.42446895
2026-03-26 20:08:15.966,1774523295.966827,0.03915676586310238,-0.0071388004242868425,-0.27540081277649464,0.9605051678870293,-0.0019198621771937625,-0.02356194490192345,-0.06736970912698112,-1.0493115499999999,1.6279039,10.79712165
2026-03-26 20:08:15.976,1774523295.976955,0.039122777178452854,-0.0069368696576924665,-0.27515640339470804,0.960578076897493,-0.007155849933176751,-0.016057029118347832,-0.06527531402458793,1.0983448,1.5004174499999998,8.7279185
2026-03-26 20:08:15.987,1774523295.987163,0.039124591905945305,-0.006926627100972373,-0.2749049152156544,0.9606500797561363,0.0024434609527920616,0.05131268000863329,-0.05480333851262195,1.10815145,0.5982056499999999,8.9828914
2026-03-26 20:08:15.997,1774523295.997078,0.03905520549698623,-0.007164515399245326,-0.2745599048226812,0.9607498213928755,0.015184364492350668,0.04590215932745086,-0.061261056745000965,-0.81395195,0.9218251,10.277369199999999
2026-03-26 20:08:16.006,1774523296.006914,0.03909310190489118,-0.007345937295777426,-0.27430127823394684,0.9608207821169997,0.017278759594743863,0.016057029118347832,-0.07278022980816354,-0.196133,1.53964405,9.7870367
2026-03-26 20:08:16.016,1774523296.016892,0.03920340277772622,-0.007272336316084448,-0.27396847374869226,0.9609117970589003,0.012042771838760872,-0.021467549799530253,-0.07260569688296412,-0.6276256,1.26505785,9.845876599999999
2026-03-26 20:08:16.026,1774523296.026847,0.03933688859053253,-0.007118221878954766,-0.2737227582070266,0.9609775188592269,0.005585053606381855,-0.043807764225057666,-0.07993607974134029,-0.5491724,1.4219642499999998,9.8654899
2026-03-26 20:08:16.036,1774523296.036945,0.03935023586972324,-0.006748557545364652,-0.2734847212923489,0.9610474094068933,-0.019896753472735354,-0.07051130178057091,-0.061784655520599266,2.75566865,2.0103632499999997,8.3748791
2026-03-26 20:08:16.046,1774523296.046757,0.039161619586787794,-0.006767614367496612,-0.2730633129825498,0.9611747989050203,-0.044331363000655974,0.03438298626428829,-0.09634217471008698,-0.20593965,1.0395048999999998,10.385242349999999
2026-03-26 20:08:16.056,1774523296.056724,0.038948660246523215,-0.006874133947220843,-0.27272254595567014,0.9612794396401777,-0.02949606435870417,0.04066617157146788,-0.07504915783575616,1.3337044,0.5883989999999999,10.3754357
2026-03-26 20:08:16.066,1774523296.066736,0.038903569358415144,-0.007028344314951921,-0.27238055860022664,0.9613771091325162,0.025830872929516076,0.02234021442552742,-0.0825540736193318,-2.3535959999999996,0.12748644999999997,10.44408225
2026-03-26 20:08:16.076,1774523296.076732,0.039120655512468745,-0.006897836745917492,-0.2721340831594683,0.9614390438002073,0.05131268000863329,-0.03752457891787808,-0.061959188445798695,0.36284605,1.2160246,8.71811185
2026-03-26 20:08:16.086,1774523296.086666,0.03933767271116032,-0.006767217831751537,-0.27188763597789517,0.9615008401820763,0.022689280275926284,0.01815142422074103,-0.07923794804054256,1.5004174499999998,2.55953565,7.7374468499999995
2026-03-26 20:08:16.096,1774523296.096681,0.039377214063226064,-0.006941592257519264,-0.2714609978199461,0.9616185189419704,0.005585053606381855,0.03420845333908886,-0.10175269539126941,-1.67693715,1.0493115499999999,10.9049948
2026-03-26 20:08:16.106,1774523296.106713,0.039403864999901984,-0.006840475088711314,-0.27104463251125527,0.9617355928270872,-0.005061454830783556,-0.06091199089460211,-0.09494591130849153,-2.5889556,1.8632635,12.258312499999999
2026-03-26 20:08:16.116,1774523296.116735,0.039416698337064446,-0.006467321852250141,-0.2707224365436874,0.9618283942534205,-0.024085543677521744,-0.032114058236695664,-0.09704030641088472,2.6674088,1.8338435499999999,8.433719
2026-03-26 20:08:16.126,1774523296.126717,0.03922806550807178,-0.006486900169180654,-0.2703006390752565,0.961954595351671,-0.027401669256310976,0.045029494701453704,-0.102799892942466,0.7649187,0.8727918499999999,7.482473949999999
2026-03-26 20:08:16.136,1774523296.136752,0.03916090959257451,-0.006718259795876567,-0.26978725979158935,0.9620998506388735,0.016231562043547264,0.09721483933608416,-0.1275835683207855,-1.32389775,0.2745862,9.46341725
2026-03-26 20:08:16.146,1774523296.146751,0.03930829586645404,-0.006832161719189303,-0.269363024536428,0.962211899975731,0.038571776469074684,-0.045029494701453704,-0.07906341511534314,-1.4219642499999998,0.6962721499999999,11.179580999999999
2026-03-26 20:08:16.156,1774523296.156765,0.0395489805661537,-0.006613442038777902,-0.26903569980597214,0.9622951380686118,0.020420352248333655,-0.02897246558310587,-0.09075712110370514,0.4903325,1.7553903499999999,10.2381426
2026-03-26 20:08:16.166,1774523296.166789,0.03946730225006499,-0.006576187933291654,-0.2687003539552898,0.9623924384520435,-0.020943951023931952,0.035255650890285456,-0.10803588069844901,1.87307015,2.3143694,8.81617835
2026-03-26 20:08:16.176,1774523296.176773,0.03920923873316568,-0.006844733911646072,-0.2681846142816607,0.962544958886722,-0.04328416544945937,0.0825540736193318,-0.12112585008840648,-1.0787315,1.9417167,9.845876599999999
2026-03-26 20:08:16.186,1774523296.186776,0.03904420478808026,-0.006780891160257575,-0.2677657868644985,0.9626687140301046,-0.01884955592153876,-0.03630284844148206,-0.09180431865490173,-2.8047018999999995,-0.3334261,10.7088618
2026-03-26 20:08:16.196,1774523296.196809,0.03924658375050853,-0.006373904707854318,-0.26752929170947537,0.9627290153932808,0.023736477827122883,-0.07609635538695278,-0.08098327729253689,2.0299765499999998,0.7453053999999999,8.8848249
2026-03-26 20:08:16.206,1774523296.206814,0.039356115964474525,-0.006299491774781011,-0.26719589161113394,0.9628176193058067,0.012042771838760872,0.041713369122664476,-0.0932005820564972,3.36368095,1.57887065,8.433719
2026-03-26 20:08:16.216,1774523296.216767,0.03915856995990936,-0.0066792393424300305,-0.26676017817227204,0.9629439243808535,-0.025132741228718343,0.10384709049366261,-0.09354964790689607,0.8825985,1.6279039,11.532620399999999
2026-03-26 20:08:16.226,1774523296.226743,0.0388999207835733,-0.0069552648280178046,-0.26641230932750043,0.9630487536428216,-0.03804817769347639,0.016057029118347832,-0.06649704450098395,-1.7063570999999997,0.57859235,11.964113
2026-03-26 20:08:16.236,1774523296.236796,0.038756846520165554,-0.006814571564543197,-0.26616459167768086,0.9631240203625167,-0.006108652381980153,-0.03420845333908886,-0.0661479786505851,-0.00980665,1.1179581,8.845598299999999
2026-03-26 20:08:16.246,1774523296.246883,0.03880383082126039,-0.006643074700947135,-0.2660869542919529,0.9631447788508977,-0.008203047484373348,0.0020943951023931952,-0.05044001538263613,3.4813607499999994,0.7551120499999999,7.79628675
2026-03-26 20:08:16.257,1774523296.257027,0.038782395916411146,-0.006716979081734604,-0.2658315891253811,0.9632156426169961,-0.009250245035569947,0.02897246558310587,-0.04415683007545653,-0.1176798,0.8924051499999999,10.69905515
2026-03-26 20:08:16.267,1774523296.267082,0.03867575754788894,-0.006774469458909011,-0.26574491641838216,0.963243443652452,-0.0029670597283903604,0.0054105206811824215,-0.045029494701453704,-0.9610517,0.2353596,11.218807599999998
2026-03-26 20:08:16.277,1774523296.277029,0.03872151218264467,-0.006609717166879822,-0.26583537228157333,0.9632177900024379,0.0013962634015954637,-0.04276056667386108,0.005235987755982988,1.5102240999999998,-0.1569064,10.2185293
2026-03-26 20:08:16.286,1774523296.286952,0.03880498966549824,-0.006636302053699526,-0.26591884976442687,0.963191205115618,0.020420352248333655,0.04066617157146788,0.008028514559173916,2.65760215,-0.1176798,7.1098212499999995
2026-03-26 20:08:16.297,1774523296.297133,0.03887976381459856,-0.007022349538574804,-0.265988848820295,0.9631661242360703,0.04817108735504349,0.059864793343405505,-0.003839724354387525,-0.65704555,0.6472389,8.061066299999998
2026-03-26 20:08:16.307,1774523296.307182,0.03904725040717004,-0.007072180785579474,-0.2660716696320453,0.9631361083013094,0.01937315469713706,-0.026703537555513242,-0.0012217304763960308,-2.0201699,1.34351105,11.169774349999999
2026-03-26 20:08:16.317,1774523296.317025,0.03913885315939118,-0.006742787284516319,-0.26625271325831984,0.9630847198848013,-0.022165681500327987,-0.09826203688728075,0.0301941960595019,0.0588399,1.765197,11.13054775
2026-03-26 20:08:16.326,1774523296.326976,0.038977890732591974,-0.006347074246548729,-0.2665194248667059,0.9630201632630895,-0.06894050545377602,-0.05113814708343386,0.04590215932745086,3.1969678999999998,2.3535959999999996,8.757338449999999
2026-03-26 20:08:16.336,1774523296.336966,0.03843979139857505,-0.006661088558800763,-0.26675842855649695,0.9629734955493395,-0.08464846872172498,0.15219271077390556,-0.0019198621771937625,0.7551120499999999,0.04903325,10.26756255
2026-03-26 20:08:16.346,1774523296.346843,0.038070184719717313,-0.007018110410638051,-0.266912438071178,0.9629429669323983,-0.019896753472735354,-0.020245819323134222,0.06283185307179587,-4.1776329,-1.32389775,11.395327299999998
2026-03-26 20:08:16.356,1774523296.35678,0.03832897691135348,-0.006741921881723831,-0.26726001686673645,0.9628382623279267,0.061959188445798695,-0.06859143960337716,0.03735004599267865,-0.63743225,-0.6472389,8.60043205
2026-03-26 20:08:16.366,1774523296.366899,0.03873323630389826,-0.006593265667805875,-0.26751929252935797,0.9627511066614527,0.08115781021773633,-0.0301941960595019,0.02111848394913139,1.0591182,1.2552512,7.4138274
2026-03-26 20:08:16.376,1774523296.376852,0.03906812983594507,-0.006693465890464684,-0.2676850000688247,0.9626908223742701,0.04066617157146788,0.05235987755982989,0.009075712110370514,3.32445435,3.18716125,8.8063717
2026-03-26 20:08:16.386,1774523296.386906,0.039058805152357254,-0.007052896325760102,-0.2676714817072481,0.9626923933812579,-0.01884955592153876,0.03647738136668149,0.004886921905584123,-3.89324005,1.7455836999999998,13.11149105
2026-03-26 20:08:16.396,1774523296.396834,0.038935660088937604,-0.006848336007618631,-0.2679311741933621,0.9626266153409284,-0.03700098014227979,-0.06091199089460211,0.0,-1.4415775499999999,-0.0784532,10.5323421
2026-03-26 20:08:16.406,1774523296.406891,0.03885994292853214,-0.006472304535985161,-0.2681131699336816,0.9625816028876187,-0.030543261909900768,-0.07487462491055674,0.01937315469713706,2.9518016499999997,1.30428445,7.1098212499999995
2026-03-26 20:08:16.416,1774523296.416842,0.03877594168922349,-0.006448907223453639,-0.26811373372790337,0.9625849903921316,-0.011344640137963142,0.02897246558310587,-0.03560471674068432,-1.46119085,0.5295591,8.757338449999999
2026-03-26 20:08:16.426,1774523296.426666,0.03882213245790185,-0.006284276920761058,-0.26820410566867475,0.9625590410969453,0.016231562043547264,-0.04817108735504349,-0.0054105206811824215,0.6080123,0.12748644999999997,10.0420096
2026-03-26 20:08:16.436,1774523296.43681,0.038906681733493,-0.006304286895881902,-0.2681195563930835,0.962579051072066,0.043807764225057666,-0.016231562043547264,-0.01832595714594046,-1.8632635,-0.1569064,11.444360549999999
2026-03-26 20:08:16.446,1774523296.446795,0.03931225097993257,-0.006149285090674695,-0.26821099011209704,0.9625381021023807,0.0661479786505851,-0.06440264939859076,-0.009599310885968814,0.6472389,2.06920315,11.32668075
2026-03-26 20:08:16.456,1774523296.45677,0.03942015413916539,-0.006085245261574262,-0.2681296751445235,0.9625567508176561,-0.02303834612632515,0.051487212933832724,-0.04852015320544236,2.1476563499999997,2.0299765499999998,8.316039199999999
2026-03-26 20:08:16.466,1774523296.466745,0.0390290817216886,-0.006512287252423426,-0.26794403114052523,0.9626215856040572,-0.061261056745000965,0.1434660645139339,-0.05846852994181004,-0.38245935,0.30400615,9.394770699999999
2026-03-26 20:08:16.476,1774523296.476746,0.03866148431720859,-0.006855456858810653,-0.2677617444506788,0.9626847565794198,-0.052883476335428184,0.024783675378319478,-0.033335788713091695,-1.0198915999999998,0.8433718999999998,9.0025047
2026-03-26 20:08:16.486,1774523296.486728,0.03843396386617028,-0.006694631064372992,-0.267598679781101,0.9627403382614949,-0.03804817769347639,-0.029845130209103034,-0.05235987755982989,-0.4118793,0.9512450499999999,7.2765343
2026-03-26 20:08:16.496,1774523296.49669,0.038443808855664174,-0.006331834680385765,-0.26752790055680736,0.9627620702198008,-0.02530727415391778,-0.07906341511534314,-0.03717551306747922,2.2163029,1.0198915999999998,10.2577559
2026-03-26 20:08:16.506,1774523296.506703,0.03838419654849591,-0.006217764514315866,-0.26736356500774144,0.9628108417369023,-0.015707963267948967,0.035255650890285456,-0.05480333851262195,1.2846711499999999,-0.32361945,12.258312499999999
2026-03-26 20:08:16.516,1774523296.516703,0.03836144211301842,-0.006298445656676008,-0.26727639153185506,0.9628354271998044,0.014137166941154071,-0.030019663134302467,0.010471975511965976,0.7943386499999999,0.4216859499999999,12.1210194
2026-03-26 20:08:16.526,1774523296.526699,0.038445465208639645,-0.0063217698978891065,-0.26727584087107037,0.9628320758662496,0.031066860685499065,0.030892327760299633,-0.03769911184307752,0.40207265,1.0787315,9.52225715
2026-03-26 20:08:16.536,1774523296.536721,0.03861351052090535,-0.006368418235708578,-0.26727473344323943,0.9628253512020092,0.032114058236695664,0.01064650843716541,-0.019547687622336492,0.5197524499999999,0.1176798,9.0613446
2026-03-26 20:08:16.546,1774523296.546732,0.0387197276943396,-0.006314470581505958,-0.26744539721360744,0.962774049119422,0.003490658503988659,-0.06632251157578452,0.04799655442984406,-1.6475172,0.26477955,9.71839015
2026-03-26 20:08:16.556,1774523296.556701,0.03878807081511432,-0.006072548256758774,-0.2677069698941782,0.962700154767926,0.0066322511575784525,-0.06422811647339133,0.015009831567151233,-0.08825984999999999,0.55897905,8.97308475
2026-03-26 20:08:16.566,1774523296.566728,0.03885704927001805,-0.005827270854502551,-0.26788449785106005,0.9626495044654109,-0.006108652381980153,-0.024609142453120045,0.02652900463031381,1.97113665,1.61809725,7.7080269
2026-03-26 20:08:16.576,1774523296.576708,0.03878701036473293,-0.006079317959696408,-0.2678749886900164,0.9626534164248494,-0.007155849933176751,0.07068583470577035,-0.015533430342749533,-0.29419949999999995,1.1571847,10.2969825
2026-03-26 20:08:16.586,1774523296.586709,0.038679119893967634,-0.006143332733890737,-0.2679563584676735,0.9626347049134955,-0.014660765716752368,-0.008552113334772215,-0.00017453292519943296,-1.4415775499999999,0.53936575,11.32668075
2026-03-26 20:08:16.596,1774523296.596772,0.03864130307528794,-0.005955292923721241,-0.2680472143372049,0.9626121103896942,-0.015707963267948967,-0.046949356878647465,-0.006457718232379019,-0.3138128,0.37265269999999995,10.198916
2026-03-26 20:08:16.606,1774523296.606721,0.038688025165441384,-0.005787268523273161,-0.2680535219556367,0.9626095021341814,-0.013613568165555772,0.008552113334772215,-0.00767944870877505,2.73605535,0.37265269999999995,7.394214099999999
2026-03-26 20:08:16.616,1774523296.616765,0.03840374642912637,-0.0061571963422877695,-0.267954811203707,0.9626460722125217,-0.020943951023931952,0.1069886831472524,-0.03490658503988659,-2.04958985,1.0787315,10.542148749999999
2026-03-26 20:08:16.627,1774523296.627009,0.038379846376337436,-0.006244560221327804,-0.2680356685687517,0.9626239521405404,0.005585053606381855,-0.041713369122664476,0.012740903539558606,-0.784532,-1.3140911,11.316874099999998
2026-03-26 20:08:16.636,1774523296.636823,0.03851057568241875,-0.006099926138425729,-0.2680414318931897,0.9626180536694515,0.031066860685499065,-0.031066860685499065,-0.013962634015954637,-0.04903325,1.36312435,7.75706015
2026-03-26 20:08:16.646,1774523296.646814,0.03867858363977289,-0.006146708100463993,-0.2680403631727382,0.9626113176445492,0.00767944870877505,0.043807764225057666,-0.02600540585471551,2.8635417999999997,1.5298374,9.12999115
2026-03-26 20:08:16.656,1774523296.656998,0.03863241033674062,-0.006311360290712526,-0.26795001963339804,0.9626372580475556,0.004537856055185257,0.0054105206811824215,-0.019547687622336492,-2.04958985,0.9120184499999999,10.385242349999999
2026-03-26 20:08:16.666,1774523296.666826,0.03854840424146943,-0.006287977216343393,-0.26795056938320605,0.9626406256958921,-0.03700098014227979,0.012915436464758038,-0.012042771838760872,1.12776475,1.6671305,11.05209455
2026-03-26 20:08:16.676,1774523296.676747,0.038296384196837535,-0.006217827706634186,-0.2679522063892518,0.9626506846552338,-0.032637657012293965,-0.02129301687433082,-0.006457718232379019,-0.5883989999999999,-0.10787314999999999,9.52225715
2026-03-26 20:08:16.686,1774523296.686781,0.038235199029000674,-0.006113765985566414,-0.2680398880366986,0.9626293730413387,-0.023212879051524585,-0.02129301687433082,-0.0054105206811824215,0.9022117999999999,1.0787315,9.24767095
2026-03-26 20:08:16.696,1774523296.696856,0.03806665833794837,-0.006070306072682707,-0.26812495582819856,0.96261263702971,-0.02949606435870417,0.04817108735504349,-0.02076941809873252,-0.6864655000000001,0.392266,10.09104285
2026-03-26 20:08:16.706,1774523296.706822,0.03804221326529236,-0.006160957383363597,-0.2682898406667229,0.9625670854589944,0.012042771838760872,-0.006457718232379019,0.016755160819145562,-1.26505785,-2.549729,11.493393799999998
2026-03-26 20:08:16.716,1774523296.716814,0.038255926930557564,-0.006046445719544514,-0.26846301988195354,0.9625110552636298,0.050265482457436686,-0.091106186954104,0.05567600313861911,0.32361945,0.46091255,10.3754357
2026-03-26 20:08:16.726,1774523296.72676,0.03857708101008643,-0.005871455407811118,-0.2686388580039067,0.9624502578328359,0.045029494701453704,0.0041887902047863905,-0.005585053606381855,2.4614691499999997,2.44185585,8.36507245
2026-03-26 20:08:16.736,1774523296.73678,0.0386142451821598,-0.006062894286054663,-0.26863203448432826,0.9624494851319203,0.005585053606381855,0.059864793343405505,-0.015533430342749533,0.7060787999999999,1.57887065,8.54159215
2026-03-26 20:08:16.746,1774523296.746812,0.03843715709592916,-0.006372089463703529,-0.2685359557662847,0.9624813878153371,-0.032637657012293965,0.031066860685499065,-0.003490658503988659,-3.22638785,0.9414384,11.30706745
2026-03-26 20:08:16.756,1774523296.756773,0.03831491026192252,-0.006163907208522787,-0.268711327864654,0.9624386713847071,-0.02844886680750757,-0.04904375198104066,0.011693705988362009,-0.36284605,0.8531785499999999,10.306789149999998
2026-03-26 20:08:16.766,1774523296.766758,0.03832409773150038,-0.005807814624145234,-0.26880836286452153,0.9624134230550059,-0.019896753472735354,-0.08552113334772216,0.01832595714594046,-0.02941995,0.73549875,9.326124149999998
2026-03-26 20:08:16.776,1774523296.776856,0.03820249092224461,-0.005596241424737408,-0.2688995716865138,0.9623940316294888,-0.050789081233034994,0.03979350694547071,-0.03246312408709453,2.26533615,0.63743225,9.80665
2026-03-26 20:08:16.786,1774523296.786839,0.03788073383749917,-0.0057745205554912875,-0.2688077835749937,0.9624313380214643,-0.02844886680750757,0.054628805587422516,-0.02495820830351891,-2.0790097999999997,-0.5982056499999999,10.85596155
2026-03-26 20:08:16.796,1774523296.796664,0.037833876603842756,-0.005942512933343822,-0.2688016017577984,0.9624338851129485,0.02897246558310587,0.023387411976724018,-0.027052603405912107,-0.26477955,-1.3337044,10.6500219
2026-03-26 20:08:16.806,1774523296.806654,0.03819325541088703,-0.00595234694689247,-0.2688026323053144,0.9624193419049081,0.05881759579220891,-0.06440264939859076,0.003141592653589793,1.3140911,1.3337044,8.6494653
2026-03-26 20:08:16.816,1774523296.816724,0.03838465649204984,-0.00591526718385255,-0.26880472319565013,0.9624113717885096,0.004537856055185257,0.026703537555513242,-0.033510321638291124,1.9122967499999999,2.3045627499999997,7.384407449999999
2026-03-26 20:08:16.826,1774523296.826894,0.038146932442564056,-0.006117008140792776,-0.2687123995766967,0.9624453439392605,-0.041189770347066175,0.08360127117052839,-0.019896753472735354,0.0,1.4317708999999998,10.542148749999999
2026-03-26 20:08:16.836,1774523296.836675,0.03784757697825,-0.006217957689884371,-0.2687917720835667,0.9624343516205238,-0.05183627878423159,-0.03944444109507184,0.025656340004316644,-3.1185147,-0.40207265,11.238420899999998
2026-03-26 20:08:16.846,1774523296.846779,0.03777178822159927,-0.005844947940921545,-0.26905715983714823,0.962365509221147,-0.02844886680750757,-0.06405358354819189,0.024609142453120045,2.42224255,0.48052585,8.7279185
2026-03-26 20:08:16.856,1774523296.856994,0.03760281066708904,-0.0058045515359005815,-0.2692261373916584,0.9623251128161261,-0.03159045946109736,0.05794493116621174,-0.003665191429188092,2.12804305,0.38245935,9.0613446
2026-03-26 20:08:16.866,1774523296.866796,0.03753241258574406,-0.006056511627750663,-0.26921692307040923,0.9623288860908716,0.00767944870877505,0.05881759579220891,0.0005235987755982988,-1.06892485,-1.1767979999999998,11.03248125
2026-03-26 20:08:16.876,1774523296.87672,0.03756891283133864,-0.006251256370549254,-0.26929420366776774,0.962304593386836,0.04066617157146788,0.009599310885968814,0.013613568165555772,-1.1767979999999998,-0.18632634999999997,11.189387649999999
2026-03-26 20:08:16.886,1774523296.88667,0.037843226802000474,-0.00624437876574641,-0.26946361245686773,0.9622464650393562,0.026878070480712675,-0.015009831567151233,0.011519173063162575,1.34351105,1.7357770499999998,9.42419065
2026-03-26 20:08:16.896,1774523296.896741,0.037819738363601856,-0.006328358099094586,-0.26946050587495507,0.9622477098167038,-0.012391837689159739,0.03961897402027128,-0.022863813201125717,-0.8531785499999999,1.61809725,8.669078599999999
2026-03-26 20:08:16.906,1774523296.906853,0.03771171975805042,-0.006392113758701514,-0.2695419271201225,0.962228723640568,-0.02530727415391778,-0.011693705988362009,0.006283185307179586,0.00980665,0.5982056499999999,9.581097049999999
2026-03-26 20:08:16.916,1774523296.916672,0.03754377859067279,-0.0063450697205787235,-0.269543038649071,0.9622352909217167,-0.03595378259108319,-0.006283185307179586,0.00942477796076938,-1.2160246,1.2356379,10.3362091
2026-03-26 20:08:16.926,1774523296.926763,0.03750626311844028,-0.006156864013749987,-0.26963371762011007,0.9622125708879329,-0.010471975511965976,-0.06300638599699529,0.0,-0.9022117999999999,0.14709974999999997,11.120741099999998
2026-03-26 20:08:16.936,1774523296.936681,0.03751529336875014,-0.005803974971268261,-0.26981444560238577,0.9621637498795444,0.00034906585039886593,-0.022514747350726852,-0.00017453292519943296,2.69682875,0.5883989999999999,8.9044382
2026-03-26 20:08:16.946,1774523296.946795,0.03755222348415102,-0.005995465440877268,-0.2698077987943109,0.9621629989847418,0.00767944870877505,0.04066617157146788,-0.003665191429188092,0.34323275000000003,0.0980665,9.8654899
2026-03-26 20:08:16.956,1774523296.956959,0.03758915260808567,-0.006186954609970696,-0.2698011124008459,0.9621622196626337,0.016231562043547264,0.016057029118347832,0.004014257279586958,0.30400615,1.12776475,10.69905515
2026-03-26 20:08:16.966,1774523296.966784,0.037565634531441364,-0.006270926549500786,-0.2697980282373283,0.9621634593673317,-0.0008726646259971648,-0.01710422666954443,-0.011868238913561441,-0.10787314999999999,0.65704555,9.306510849999999
2026-03-26 20:08:16.976,1774523296.976758,0.037588612551314404,-0.006190234858788584,-0.26988507586676996,0.9621386714103367,-0.004014257279586958,-0.028797932657906436,-0.006457718232379019,-0.1372931,1.3337044,8.482752249999999
2026-03-26 20:08:16.986,1774523296.986923,0.03763566250135205,-0.006022294944262058,-0.2698912378115119,0.962136169481357,-0.008203047484373348,-0.008552113334772215,-0.010821041362364843,1.7063570999999997,1.4121575999999998,8.4533323
2026-03-26 20:08:16.996,1774523296.996694,0.037420687102890905,-0.0061431309329863645,-0.2698861521559773,0.9621452172065964,-0.03368485456349056,0.04066617157146788,-0.006806784082777886,-1.4808041499999998,0.73549875,11.356100699999999
2026-03-26 20:08:17.006,1774523297.006774,0.0373367239508972,-0.006119578899821645,-0.2698866872176321,0.9621484791140062,-0.014660765716752368,-0.03420845333908886,0.003141592653589793,0.16671305,-0.10787314999999999,10.1400761
2026-03-26 20:08:17.016,1774523297.016676,0.0373367239508972,-0.006119578899821645,-0.2698866872176321,0.9621484791140062,-0.012391837689159739,0.02356194490192345,-0.009948376736367677,0.67665885,1.4023509499999998,9.747810099999999
2026-03-26 20:08:17.026,1774523297.02672,0.03716826672962961,-0.00607571826015076,-0.26997171400892084,0.9621314251343336,-0.026354471705114377,-0.007330382858376184,0.007330382858376184,0.7256921,0.45110589999999995,8.9240515
2026-03-26 20:08:17.036,1774523297.036843,0.037037237743312225,-0.006220097587459527,-0.26996616116899963,0.962137113529055,-0.014486232791552934,0.06859143960337716,-0.03787364476827695,-0.5687857,0.4216859499999999,8.7083052
2026-03-26 20:08:17.046,1774523297.046857,0.03698961197405154,-0.006391264201803493,-0.27004403241248626,0.9621159706118155,-0.0019198621771937625,0.0010471975511965976,0.02530727415391778,-0.8531785499999999,-0.48052585,10.85596155
2026-03-26 20:08:17.056,1774523297.056708,0.037012602969718145,-0.006310526944122221,-0.27013103777992714,0.9620911946894811,0.016231562043547264,0.0020943951023931952,0.014660765716752368,-0.5197524499999999,-0.196133,10.67944185
2026-03-26 20:08:17.066,1774523297.066946,0.03711956404704321,-0.006253374648983741,-0.27021749414085633,0.9620631679524445,0.004537856055185257,-0.03630284844148206,0.02757620218151041,1.6279039,1.0395048999999998,8.42391235
2026-03-26 20:08:17.076,1774523297.076673,0.03707245212676942,-0.006421300426175401,-0.2702113898780758,0.9620655928648025,-0.011344640137963142,0.0439822971502571,-0.013264502315156905,0.1176798,2.0986230999999997,8.414105699999999
2026-03-26 20:08:17.086,1774523297.086911,0.03683329044885983,-0.0066292437748976495,-0.27028733453338916,0.9620520353039738,-0.05183627878423159,0.04293509959906051,-0.0013962634015954637,-0.5197524499999999,0.06864655,10.816734949999999
2026-03-26 20:08:17.096,1774523297.096652,0.03660442419830059,-0.006477714866450223,-0.27037603798225157,0.962036877372297,-0.03385938748868999,-0.07592182246175333,0.04817108735504349,-2.12804305,0.25497289999999995,11.76798
2026-03-26 20:08:17.106,1774523297.10671,0.03663727368410278,-0.006040712892713213,-0.2705595496841686,0.961986876230359,0.0013962634015954637,-0.054628805587422516,0.009599310885968814,0.0784532,0.16671305,8.97308475
2026-03-26 20:08:17.116,1774523297.116853,0.036682905056861455,-0.005882403883819659,-0.27081739047948705,0.9619135630684381,0.0066322511575784525,0.013962634015954637,0.01884955592153876,3.334261,0.36284605,8.747531799999999
2026-03-26 20:08:17.126,1774523297.126661,0.03664936283014446,-0.00632258828522422,-0.2707178737014495,0.9619400615111557,0.016231562043547264,0.09407324668249435,-0.014660765716752368,-2.8537351499999994,0.2353596,11.99353295
2026-03-26 20:08:17.136,1774523297.136995,0.036817252483892435,-0.0063698373710866976,-0.2707167660783579,0.9619336503395018,0.03961897402027128,-0.05794493116621174,0.028797932657906436,-0.6962721499999999,0.0784532,9.80665
2026-03-26 20:08:17.146,1774523297.146782,0.036984580878876155,-0.006420313800899509,-0.27079959316272995,0.9619035818057919,0.03438298626428829,0.035255650890285456,-0.029321531433504737,0.5883989999999999,1.2944778,7.65899365
2026-03-26 20:08:17.156,1774523297.156734,0.0370454845167634,-0.006524661105573986,-0.2707120345929726,0.9619251817064095,0.003490658503988659,0.011693705988362009,-0.017453292519943295,1.0395048999999998,2.20649625,9.316317499999998
2026-03-26 20:08:17.166,1774523297.166776,0.03698570087171145,-0.006413858676057246,-0.27063170519317625,0.9619508306000601,-0.03595378259108319,-0.04485496177625427,-0.03298672286269283,-2.2751428,0.980665,9.14960445
2026-03-26 20:08:17.176,1774523297.176703,0.03682823241162663,-0.006007192404335112,-0.27064545600645773,0.9619556289558833,-0.04974188368183839,-0.05235987755982989,-0.024434609527920613,2.44185585,1.01008495,8.6886919
2026-03-26 20:08:17.186,1774523297.186686,0.03655384930497845,-0.006013912192698417,-0.27047612530504433,0.9620136769303737,-0.062482787221396996,0.01832595714594046,-0.01832595714594046,0.00980665,0.4903325,11.444360549999999
2026-03-26 20:08:17.196,1774523297.196886,0.036302511958716664,-0.005939933534214123,-0.2703937370818882,0.9620468137060624,-0.026354471705114377,-0.01710422666954443,-0.008726646259971648,-1.61809725,-0.5687857,11.56204035
2026-03-26 20:08:17.206,1774523297.206784,0.036326082931550985,-0.005855972012488048,-0.27039671058474196,0.9620456029708728,0.020420352248333655,0.01064650843716541,-0.018500490071139894,2.1868829499999998,-0.44129925,8.825985
2026-03-26 20:08:17.216,1774523297.2167,0.03638646624266784,-0.005963529816510837,-0.27039321769531816,0.9620436420510616,0.035430183815484885,0.026703537555513242,-0.014311699866353502,-0.5197524499999999,0.40207265,11.05209455
2026-03-26 20:08:17.226,1774523297.226674,0.036530803045200184,-0.0060946829392932115,-0.2703891752017151,0.9620384863416217,0.03438298626428829,-0.007504915783575617,-0.00017453292519943296,-0.5883989999999999,0.8825985,10.4146623
2026-03-26 20:08:17.236,1774523297.236699,0.036744807832018535,-0.0059803675433042405,-0.2705620314268497,0.9619824538169143,0.023736477827122883,-0.03420845333908886,0.02234021442552742,0.44129925,0.57859235,8.26700595
2026-03-26 20:08:17.246,1774523297.246731,0.03685182444668381,-0.005923238578869939,-0.2706484710896647,0.9619543977634883,0.012042771838760872,0.009599310885968814,-0.003490658503988659,0.46091255,1.0002783,7.87473995
2026-03-26 20:08:17.256,1774523297.256737,0.03685130740628521,-0.005926454484671644,-0.27073241641648027,0.9619307755659875,-0.015707963267948967,-0.01710422666954443,0.010471975511965976,-0.12748644999999997,1.7455836999999998,9.3555441
2026-03-26 20:08:17.266,1774523297.266796,0.03670651167952558,-0.005798453607507826,-0.2708203886333384,0.9619123281446027,-0.03700098014227979,-0.013788101090755204,-0.0022689280275926286,-0.0784532,0.04903325,10.0223963
2026-03-26 20:08:17.276,1774523297.276705,0.03653812372406437,-0.005754375019514892,-0.27090533874225653,0.9618950827007086,-0.04223696789826278,-0.02129301687433082,0.02007128639793479,0.5491724,1.4415775499999999,10.44408225
2026-03-26 20:08:17.287,1774523297.287033,0.03636974262958304,-0.005710266911411973,-0.2709902796488789,0.9618778004552764,-0.03595378259108319,0.015009831567151233,0.0006981317007977319,-0.5982056499999999,0.29419949999999995,10.8461549
2026-03-26 20:08:17.296,1774523297.296803,0.036201368405080495,-0.005666129285405019,-0.2710752113448421,0.9618604814103081,-0.015707963267948967,-0.003141592653589793,-0.00017453292519943296,0.7158854499999999,0.34323275000000003,9.34573745
2026-03-26 20:08:17.307,1774523297.307039,0.03611743010561531,-0.00564247348906749,-0.271075704775723,0.9618636369131731,0.003490658503988659,0.009599310885968814,-0.015184364492350668,-0.784532,0.67665885,9.934136449999999
2026-03-26 20:08:17.317,1774523297.317132,0.03622499737315371,-0.0055821835908659604,-0.2710781631574993,0.9618592507486888,0.027925268031909273,-0.045029494701453704,0.005235987755982988,0.34323275000000003,-0.10787314999999999,10.071429549999998
2026-03-26 20:08:17.326,1774523297.32698,0.03644012960344852,-0.005461605086259912,-0.27108311148858105,0.9618504220979658,0.021467549799530253,-0.016057029118347832,-0.0033161255787892262,0.22555294999999997,0.61781895,10.0420096
2026-03-26 20:08:17.336,1774523297.336767,0.0365476945596516,-0.005401316483528422,-0.2710856014377358,0.961845979611996,0.021467549799530253,-0.0054105206811824215,-0.01937315469713706,0.6080123,0.7453053999999999,10.60098865
2026-03-26 20:08:17.346,1774523297.346901,0.03671556779455909,-0.0054486297640198335,-0.271084654601305,0.9618395861862356,0.022689280275926284,-0.020420352248333655,-0.0066322511575784525,-0.34323275000000003,1.1866046499999998,8.85540495
2026-03-26 20:08:17.356,1774523297.356764,0.03673919510606505,-0.005364685195632618,-0.2710876347843246,0.9618383159152848,-0.0019198621771937625,-0.0041887902047863905,-0.01937315469713706,1.7455836999999998,1.53964405,8.580818749999999
2026-03-26 20:08:17.366,1774523297.366727,0.03663210459532076,-0.00542177641089393,-0.27100119140206663,0.9618664395393615,-0.03804817769347639,0.045029494701453704,-0.03246312408709453,-0.63743225,0.48052585,10.483308849999998
2026-03-26 20:08:17.376,1774523297.376846,0.03646422667489024,-0.005374477697887751,-0.2710021335529744,0.9618728183976366,-0.01780235837034216,-0.05235987755982989,0.024609142453120045,-0.16671305,0.25497289999999995,10.395049
2026-03-26 20:08:17.386,1774523297.386683,0.036403907725567786,-0.005266880614757191,-0.2710055525235088,0.9618747350732973,-0.015707963267948967,0.011868238913561441,-0.0024434609527920616,1.22583125,1.3533177,8.9436648
2026-03-26 20:08:17.396,1774523297.396691,0.036319510484955894,-0.0052464003939949695,-0.2710899497641207,0.9618542548525352,-0.014660765716752368,-0.016057029118347832,0.0029670597283903604,-1.0983448,0.14709974999999997,10.189109349999999
2026-03-26 20:08:17.407,1774523297.407025,0.036282386590024085,-0.005058017214591931,-0.2711802094727323,0.9618312216160972,-0.020943951023931952,-0.02129301687433082,0.005235987755982988,1.1375714,1.36312435,8.85540495
2026-03-26 20:08:17.417,1774523297.417096,0.036258751843126276,-0.0051419613485988395,-0.27117727748341985,0.9618324944214292,-0.0029670597283903604,0.01815142422074103,0.0017453292519943296,-1.87307015,-0.37265269999999995,10.6892485
2026-03-26 20:08:17.426,1774523297.426889,0.036328801212903654,-0.004896469478150352,-0.2713539338931451,0.9617813084843132,0.016231562043547264,-0.0460766922526503,0.007504915783575617,2.38301595,0.12748644999999997,9.237864299999998
2026-03-26 20:08:17.436,1774523297.436853,0.03638952014538481,-0.005000913820124792,-0.2712666384816584,0.961803100707943,0.021642082724729686,0.02234021442552742,-0.0301941960595019,-0.3334261,1.65732385,9.05153795
2026-03-26 20:08:17.446,1774523297.446709,0.03647389150002308,-0.005021403352649961,-0.27118226712702015,0.9618235902404682,0.022689280275926284,0.01815142422074103,-0.028099800957108706,0.16671305,0.7256921,9.375157399999999
2026-03-26 20:08:17.456,1774523297.456759,0.0365350867937451,-0.005122635355752678,-0.2710110023112328,0.9618690049410296,-0.010297442586766544,0.015009831567151233,-0.03769911184307752,0.29419949999999995,2.10842975,10.149882749999998
2026-03-26 20:08:17.466,1774523297.466949,0.03645203713479994,-0.005092623161706611,-0.2708435658197644,0.9619194753367305,-0.026354471705114377,-0.02234021442552742,-0.016057029118347832,-2.63798885,0.7551120499999999,11.012867949999999
2026-03-26 20:08:17.476,1774523297.476791,0.036438487508049816,-0.00482031086137954,-0.2709367583253774,0.9618951472065242,-0.004014257279586958,-0.0471238898038469,-0.01064650843716541,0.53936575,-0.18632634999999997,9.394770699999999
2026-03-26 20:08:17.486,1774523297.486855,0.03648611618998168,-0.004649226402422593,-0.2708586770625166,0.961916173623863,0.005585053606381855,-0.0010471975511965976,-0.01832595714594046,0.6668522,0.50013915,8.3356525
2026-03-26 20:08:17.496,1774523297.496741,0.03654687021271037,-0.0047536260187334535,-0.27077138964758196,0.9619379313997586,0.00767944870877505,0.0020943951023931952,-0.01832595714594046,-0.7060787999999999,0.8825985,9.561483749999999
2026-03-26 20:08:17.506,1774523297.506804,0.03659406294425787,-0.004585717757345162,-0.27077726135988195,0.9619352995291959,-0.0019198621771937625,-0.03735004599267865,-0.004363323129985824,0.5883989999999999,1.34351105,10.1793027
2026-03-26 20:08:17.516,1774523297.516777,0.036510118114184836,-0.0045620879661627195,-0.2707776605082052,0.961938489300839,-0.02949606435870417,0.024609142453120045,-0.014137166941154071,0.8629851999999999,1.0395048999999998,9.483030549999999
2026-03-26 20:08:17.526,1774523297.526753,0.036342227620556715,-0.0045148282797509275,-0.2707784526185793,0.9619448468673596,-0.013613568165555772,-0.024609142453120045,0.006283185307179586,-0.29419949999999995,0.2353596,10.6892485
2026-03-26 20:08:17.536,1774523297.536748,0.03638904045371377,-0.004350093908774253,-0.2708682163856876,0.9619185640010693,-0.012566370614359171,-0.028797932657906436,-0.006457718232379019,1.3337044,1.2062179499999999,9.1201845
2026-03-26 20:08:17.546,1774523297.546739,0.03630471939210614,-0.004329624382084644,-0.2709525374472953,0.9618980944743797,-0.006108652381980153,0.016057029118347832,-0.0024434609527920616,1.5004174499999998,0.18632634999999997,8.54159215
2026-03-26 20:08:17.556,1774523297.556744,0.0362814936251973,-0.004410409357267762,-0.27086569369213875,0.9619230621470215,0.009773843811168246,-0.0,-0.015184364492350668,-1.6082906,0.6472389,11.3364874
2026-03-26 20:08:17.566,1774523297.566988,0.03638904045371377,-0.004350093908774253,-0.2708682163856876,0.9619185640010693,0.0013962634015954637,-0.03735004599267865,0.003141592653589793,1.0983448,1.7259703999999998,10.885381500000001
2026-03-26 20:08:17.576,1774523297.576676,0.03632870026806707,-0.004242502972115693,-0.2708714941882886,0.9619204022899028,-0.02199114857512855,0.020420352248333655,-0.028099800957108706,1.7848102999999997,1.24544455,8.42391235
2026-03-26 20:08:17.586,1774523297.586757,0.036067187887743705,-0.004524746727682763,-0.27069278695556176,0.9619792615826764,-0.02844886680750757,0.09634217471008698,-0.03368485456349056,-0.57859235,0.38245935,9.24767095
2026-03-26 20:08:17.596,1774523297.59679,0.03588929964579076,-0.004833823983537307,-0.27059767527278783,0.9620111696095808,-0.005061454830783556,0.031066860685499065,-0.020594885173533087,-2.2555295,-0.784532,10.16949605
2026-03-26 20:08:17.606,1774523297.606724,0.035888877678415095,-0.004836955897352762,-0.27068162555407493,0.961987551844635,0.005585053606381855,0.003141592653589793,0.004014257279586958,0.9512450499999999,0.6080123,9.1594111
2026-03-26 20:08:17.616,1774523297.616822,0.035972826792368275,-0.004860577306857863,-0.2706812024193653,0.9619844162862603,0.00767944870877505,-0.01064650843716541,0.00942477796076938,-0.28439285,0.37265269999999995,9.4536106
2026-03-26 20:08:17.626,1774523297.626736,0.035972402490006675,-0.0048637165096900555,-0.27076515036566656,0.9619607912322977,0.013089969389957472,-0.012915436464758038,0.006283185307179586,-0.28439285,0.7060787999999999,9.1397978
2026-03-26 20:08:17.636,1774523297.636769,0.03605634926833783,-0.0048873452080080955,-0.2707647248953349,0.96195764838511,-0.0006981317007977319,0.01710422666954443,-0.006806784082777886,1.7063570999999997,2.1868829499999998,9.914523149999999
2026-03-26 20:08:17.646,1774523297.646958,0.03584082120466117,-0.005011126952974504,-0.27084373039052345,0.961942824626382,-0.04223696789826278,0.033335788713091695,-0.009948376736367677,-1.8142302499999998,-0.32361945,11.9444997
2026-03-26 20:08:17.656,1774523297.656853,0.03569653618048092,-0.004879901573720236,-0.27084748202127157,0.9619478080166738,-0.008203047484373348,-0.06946410422937431,0.031066860685499065,0.1569064,-0.34323275000000003,9.973363049999998
2026-03-26 20:08:17.666,1774523297.666924,0.03571930452977692,-0.004802181649739641,-0.27101824832589627,0.9618992563723473,0.0066322511575784525,0.0471238898038469,0.0015707963267948964,2.0593964999999996,1.7063570999999997,7.972806449999999
2026-03-26 20:08:17.676,1774523297.676735,0.035732383663953565,-0.005077681779310274,-0.2710091634571245,0.9618999153902186,0.023736477827122883,0.03316125578789226,-0.006806784082777886,-2.06920315,0.48052585,9.502643849999998
2026-03-26 20:08:17.686,1774523297.686808,0.03594750767481982,-0.004957083209795726,-0.27101408098616975,0.9618911434903855,0.03420845333908886,-0.08569566627292158,-0.00942477796076938,-1.7357770499999998,0.97085835,9.375157399999999
2026-03-26 20:08:17.696,1774523297.696768,0.036149546394803035,-0.004560987962161545,-0.27102816757691933,0.9618815623891314,-0.0019198621771937625,-0.03735004599267865,-0.015009831567151233,3.3734875999999994,2.7066354,8.7083052
2026-03-26 20:08:17.706,1774523297.706673,0.03599516572790349,-0.004786043392247541,-0.2709359389631861,0.9619122407013049,-0.026179938779914945,0.08028514559173916,-0.03787364476827695,-0.97085835,0.5982056499999999,11.983726299999999
2026-03-26 20:08:17.716,1774523297.71675,0.035911638373412845,-0.00475926588954811,-0.2708524116086954,0.9619390182040042,-0.010471975511965976,-0.06527531402458793,-0.007330382858376184,-1.6671305,0.3334261,11.375713999999999
2026-03-26 20:08:17.726,1774523297.726676,0.03587530199690176,-0.004564590784877119,-0.2707746423189869,0.9619632115079154,0.005585053606381855,0.012740903539558606,-0.0439822971502571,1.2552512,0.6668522,7.9629998
2026-03-26 20:08:17.736,1774523297.736764,0.03595964924764469,-0.004585082258739851,-0.2706902950682439,0.9619837029817782,0.031066860685499065,-0.0022689280275926286,-0.01937315469713706,-0.06864655,0.18632634999999997,8.73772515
2026-03-26 20:08:17.746,1774523297.746745,0.036127546528771086,-0.004632326557686552,-0.27068949069758014,0.961977412187188,0.03647738136668149,-0.03438298626428829,-0.024609142453120045,-0.9022117999999999,1.55925735,10.1793027
2026-03-26 20:08:17.756,1774523297.756952,0.036305851640962714,-0.004320119680508253,-0.2707007038325163,0.9619689967182679,0.0024434609527920616,-0.050265482457436686,-0.011693705988362009,1.4906107999999998,1.24544455,9.6301303
2026-03-26 20:08:17.766,1774523297.766731,0.03630660509111419,-0.004313783048252486,-0.27053280444741284,0.9620162282520958,-0.009250245035569947,0.0,-0.031241393610698498,-0.25497289999999995,0.8924051499999999,9.8654899
2026-03-26 20:08:17.776,1774523297.776852,0.03622265319977235,-0.004290174590995475,-0.2705331798658868,0.9620193929380008,-0.04328416544945937,0.031066860685499065,-0.021642082724729686,1.65732385,1.4121575999999998,10.6304086
2026-03-26 20:08:17.786,1774523297.786696,0.03581611787595143,-0.004447628343475864,-0.2705260594361681,0.962035901340669,-0.05393067388662478,0.0301941960595019,0.003839724354387525,-0.8041453,-0.0196133,10.2577559
2026-03-26 20:08:17.796,1774523297.796701,0.0357313915882138,-0.004430256846062826,-0.27069434989854657,0.9619917927989048,-0.012566370614359171,-0.013788101090755204,0.02007128639793479,1.08853815,0.38245935,8.79656505
2026-03-26 20:08:17.807,1774523297.807036,0.03577819930523974,-0.004265461592964041,-0.2707840195467914,0.9619655612598388,0.025830872929516076,-0.06318091892219473,0.016057029118347832,-0.7943386499999999,0.43149259999999995,9.12999115
2026-03-26 20:08:17.816,1774523297.816779,0.036016527871540284,-0.004063996479558924,-0.2708758264472252,0.9619316921170783,0.03752457891787808,-0.010821041362364843,-0.009773843811168246,2.9027684,1.4415775499999999,8.159132799999998
2026-03-26 20:08:17.826,1774523297.826918,0.0361372095183896,-0.004279180627284916,-0.27086934595508944,0.9619280576650445,0.038571776469074684,0.0651007810993885,-0.017627825445142728,0.0980665,0.6864655000000001,11.7875933
2026-03-26 20:08:17.836,1774523297.836777,0.0361739460132443,-0.004470725245135698,-0.2708631815256599,0.9619275415224426,0.0013962634015954637,-0.016057029118347832,0.0029670597283903604,-0.10787314999999999,1.2356379,12.640771849999998
2026-03-26 20:08:17.846,1774523297.846759,0.036197549864227505,-0.004386771849576039,-0.2708660775415814,0.9619262246418925,-0.019896753472735354,0.009773843811168246,-0.009948376736367677,1.3533177,1.4317708999999998,8.67888525
2026-03-26 20:08:17.856,1774523297.85676,0.03600605743548416,-0.004423450633882173,-0.27086395768892857,0.9619338404160301,-0.01884955592153876,0.03647738136668149,-0.010995574287564275,-1.36312435,0.6276256,8.590625399999999
2026-03-26 20:08:17.867,1774523297.867134,0.0359217286420601,-0.004402948056585913,-0.27094828648235264,0.9619133378387338,-0.01780235837034216,-0.04799655442984406,0.011693705988362009,-1.3729310000000001,1.22583125,8.394492399999999
2026-03-26 20:08:17.876,1774523297.876832,0.035884641078539635,-0.004214530168041504,-0.2710383425961395,0.9618901949354016,-0.026354471705114377,-0.026703537555513242,-0.007504915783575617,0.7453053999999999,1.4906107999999998,8.747531799999999
2026-03-26 20:08:17.886,1774523297.886774,0.035847936975926614,-0.0040229763740895355,-0.27104441734283885,0.9618906720116088,-0.026354471705114377,-0.03944444109507184,0.003141592653589793,-0.7060787999999999,0.5295591,11.277647499999999
2026-03-26 20:08:17.896,1774523297.896721,0.03578761414462519,-0.003915372366275795,-0.2710476109552354,0.9618924623514461,-0.0029670597283903604,0.0054105206811824215,-0.021642082724729686,0.45110589999999995,-0.40207265,10.806928300000001
2026-03-26 20:08:17.906,1774523297.906902,0.03578761414462519,-0.003915372366275795,-0.2710476109552354,0.9618924623514461,-0.015707963267948967,0.027925268031909273,-0.00034906585039886593,2.4712758,1.12776475,10.208722649999999
2026-03-26 20:08:17.916,1774523297.916744,0.03560919855509057,-0.004227523412358714,-0.27103659422946136,0.9619008668322097,-0.012391837689159739,0.05777039824101231,-0.029321531433504737,-2.4320492,0.1176798,10.42446895
2026-03-26 20:08:17.926,1774523297.926769,0.03563281758750488,-0.004143572352260628,-0.2710394366692072,0.9618995565489028,0.024783675378319478,-0.05567600313861911,0.009599310885968814,-0.0980665,0.24516625,9.12999115
2026-03-26 20:08:17.936,1774523297.936678,0.03587121107941148,-0.003942156086248019,-0.2711312078900217,0.9618656786314738,0.020420352248333655,-0.045029494701453704,-0.006457718232379019,1.2944778,1.36312435,7.6884136
2026-03-26 20:08:17.946,1774523297.946817,0.035894836117137126,-0.003858207461056207,-0.27113405660823536,0.9618643346764,-0.009250245035569947,0.006457718232379019,-0.013089969389957472,1.08853815,1.2160246,9.404577349999999
2026-03-26 20:08:17.956,1774523297.956829,0.035811231973531914,-0.003831421431442033,-0.2710504524646301,0.9618911207060141,-0.02303834612632515,0.0,-0.005585053606381855,-0.6864655000000001,1.16699135,11.101127799999999
2026-03-26 20:08:17.966,1774523297.966778,0.03570367305587185,-0.003891718985193012,-0.2710479516038583,0.9618955817473184,-0.008203047484373348,0.050265482457436686,-0.033510321638291124,-0.7256921,-0.5687857,11.218807599999998
2026-03-26 20:08:17.976,1774523297.976926,0.03570367305587185,-0.003891718985193012,-0.2710479516038583,0.9618955817473184,0.014137166941154071,-0.03647738136668149,0.009599310885968814,1.3533177,0.35303939999999995,10.8265416
2026-03-26 20:08:17.986,1774523297.986922,0.03576434491379525,-0.00399620225864484,-0.2709608252807075,0.9619174461270537,0.01937315469713706,0.032114058236695664,-0.023911010752322315,0.93163175,1.6475172,8.757338449999999
2026-03-26 20:08:17.996,1774523297.996789,0.035908979869097545,-0.004124312586425076,-0.27087331954431004,0.9619361621071829,0.020420352248333655,0.008552113334772215,-0.005585053606381855,-0.5883989999999999,0.34323275000000003,8.208166049999999
2026-03-26 20:08:18.006,1774523298.006755,0.035992562384336145,-0.00415109168650151,-0.2709569020595487,0.9619093830071064,0.010995574287564275,0.0020943951023931952,0.0019198621771937625,0.00980665,1.7553903499999999,8.91424485
2026-03-26 20:08:18.016,1774523298.016709,0.03601581802178721,-0.0040702824875937516,-0.2710437110727653,0.9618844007159052,-0.007155849933176751,-0.0715584993317675,0.012915436464758038,-1.9221034,0.9218251,10.757895049999998
2026-03-26 20:08:18.026,1774523298.026949,0.036026023496886155,-0.003713971515749476,-0.2711394247774956,0.9618584845900724,-0.02844886680750757,-0.04799655442984406,-0.008552113334772215,1.7063570999999997,1.57887065,9.36535075
2026-03-26 20:08:18.037,1774523298.037023,0.035905089912975564,-0.0035018840803977772,-0.271229674452551,0.9618383570135847,-0.0466002910282486,-0.008377580409572781,-0.0033161255787892262,2.1770763,1.3533177,9.414383999999998
2026-03-26 20:08:18.046,1774523298.046764,0.03555907994516495,-0.0037635635878807278,-0.27113538685824523,0.9618768057375139,-0.044331363000655974,0.08464846872172498,-0.028274333882308142,-0.9022117999999999,0.0196133,10.100849499999999
2026-03-26 20:08:18.056,1774523298.056787,0.035390551086303124,-0.0037224183516750033,-0.27130391571710705,0.9618356605013083,-0.02426007660272118,-0.020245819323134222,0.048869219055841226,0.5491724,-0.10787314999999999,10.542148749999999
2026-03-26 20:08:18.066,1774523298.066886,0.03538990086271378,-0.0037285951113534823,-0.27147178357544827,0.9617882943859256,0.009773843811168246,0.008552113334772215,0.005061454830783556,-0.21574629999999997,-0.30400615,8.77695175
2026-03-26 20:08:18.076,1774523298.076789,0.035496525657760826,-0.0036776369372335162,-0.2717260518355259,0.9617127556639056,0.016231562043547264,-0.020420352248333655,0.04241150082346221,3.3734875999999994,0.22555294999999997,8.4729456
2026-03-26 20:08:18.087,1774523298.087018,0.03544883641000452,-0.003848601299996377,-0.2718043558275176,0.9616917179732799,-0.0029670597283903604,0.06318091892219473,0.015533430342749533,-1.12776475,0.8433718999999998,12.3171524
2026-03-26 20:08:18.096,1774523298.096772,0.035424121166717816,-0.003941808764836031,-0.2720533039343028,0.9616218558256967,-0.011519173063162575,-0.007504915783575617,0.04241150082346221,-0.7060787999999999,-0.3138128,10.3754357
2026-03-26 20:08:18.106,1774523298.106688,0.035338833877596405,-0.003930403439686898,-0.272389300733503,0.961529920280636,0.0066322511575784525,-0.011693705988362009,0.05742133239061344,0.4118793,0.44129925,9.5124505
2026-03-26 20:08:18.116,1774523298.116914,0.03542170664355002,-0.003963447392249243,-0.272640674502579,0.9614554885120818,0.0024434609527920616,0.003141592653589793,0.0466002910282486,-1.06892485,0.8629851999999999,9.492837199999999
2026-03-26 20:08:18.126,1774523298.126774,0.0353840003410861,-0.0037841808148047704,-0.27298222155932345,0.9613606811223141,-0.023212879051524585,-0.035255650890285456,0.06719517620178168,0.77472535,1.87307015,8.845598299999999
2026-03-26 20:08:18.137,1774523298.137052,0.03529911999125064,-0.003769600024677972,-0.27323422583932516,0.9612922656889953,-0.041189770347066175,0.023736477827122883,0.054105206811824215,0.25497289999999995,1.01008495,9.81645665
2026-03-26 20:08:18.146,1774523298.146945,0.03510653555942849,-0.0038150016917625623,-0.2734837580289091,0.9612281784350122,-0.019896753472735354,-0.04904375198104066,0.0651007810993885,-1.95152335,1.3140911,11.169774349999999
2026-03-26 20:08:18.156,1774523298.156739,0.035140331568474896,-0.0033870031305587613,-0.2739173174309095,0.9611050871358997,-0.005061454830783556,-0.05445427266222309,0.053407075111026485,3.3146477,1.1375714,9.571290399999999
2026-03-26 20:08:18.166,1774523298.166914,0.03513973988969601,-0.00339313622380174,-0.2740850577403404,0.9610572649070009,0.00034906585039886593,0.02356194490192345,0.04328416544945937,0.9022117999999999,0.93163175,9.218250999999999
2026-03-26 20:08:18.176,1774523298.176718,0.03512709732233075,-0.0037617644387901135,-0.27432526199014584,0.9609878182349934,0.008726646259971648,0.07801621756414652,0.027052603405912107,0.6962721499999999,0.53936575,10.738281749999999
2026-03-26 20:08:18.186,1774523298.186796,0.03518637906117072,-0.0038757168457006176,-0.2744898665103763,0.9609381929815316,0.022514747350726852,-0.06318091892219473,0.08325220532012952,-0.4118793,1.5886772999999998,10.914801449999999
2026-03-26 20:08:18.197,1774523298.197039,0.03534071648350066,-0.003660404858144185,-0.27483331080333623,0.9608352025543111,0.022514747350726852,-0.011868238913561441,0.04991641660703782,2.8145085499999998,1.06892485,8.129712849999999
2026-03-26 20:08:18.206,1774523298.206809,0.03537566033815119,-0.0038613676614478697,-0.2750789338943653,0.960762838906128,-0.010297442586766544,0.03647738136668149,0.052883476335428184,0.30400615,0.9218251,9.747810099999999
2026-03-26 20:08:18.216,1774523298.216766,0.035182642429096744,-0.003909491553995467,-0.2754121743476113,0.9606742589289131,-0.02844886680750757,0.0022689280275926286,0.08621926504851989,-0.6080123,0.61781895,10.306789149999998
2026-03-26 20:08:18.226,1774523298.226674,0.0351451808186348,-0.0037331028857415776,-0.2758372132425221,0.9605543774293412,-0.014660765716752368,-0.08011061266653972,0.11431906600562858,0.392266,0.7551120499999999,7.7668668
2026-03-26 20:08:18.236,1774523298.236959,0.035143221352998626,-0.0037515043468198976,-0.2763401205042906,0.9604098177381072,-0.005061454830783556,0.01710422666954443,0.09040805525330627,1.1767979999999998,0.29419949999999995,8.81617835
2026-03-26 20:08:18.246,1774523298.246886,0.035033329498113816,-0.0038295550903340086,-0.276840514489746,0.9602694048386314,-0.009250245035569947,0.022514747350726852,0.09773843811168245,0.26477955,1.1866046499999998,11.34629405
2026-03-26 20:08:18.256,1774523298.256699,0.034971700447603844,-0.0037398981633493932,-0.2773463645689293,0.9601260268266502,-0.030543261909900768,-0.04485496177625427,0.11623892818282235,-0.14709974999999997,-0.14709974999999997,10.816734949999999
2026-03-26 20:08:18.266,1774523298.266762,0.034933762771887346,-0.0035724897265445007,-0.278022410786797,0.9599325021250446,-0.023212879051524585,-0.012740903539558606,0.12775810124598494,1.57887065,0.93163175,9.0613446
2026-03-26 20:08:18.276,1774523298.276891,0.03471550863119387,-0.0037127345899533194,-0.27860391016669867,0.9597712802028241,-0.045553093477052,0.035430183815484885,0.1340412865531645,2.7458620000000002,0.97085835,9.375157399999999
2026-03-26 20:08:18.286,1774523298.286904,0.03444843367514175,-0.0040202189674516265,-0.27917991056105523,0.9596122762844921,-0.02530727415391778,0.030019663134302467,0.1392772743091475,-3.77556025,-0.55897905,11.4345539
2026-03-26 20:08:18.296,1774523298.296792,0.03451778873122533,-0.0038021005782410836,-0.2801091072713789,0.95933985339708,0.012915436464758038,-0.07592182246175333,0.16545721308906244,2.63798885,-0.99047165,9.6301303
2026-03-26 20:08:18.306,1774523298.306825,0.034622965891824974,-0.003770010629015947,-0.28086487258579224,0.9591151967308607,0.010821041362364843,0.02775073510670984,0.1488765851951163,3.26561445,2.26533615,7.9433865
2026-03-26 20:08:18.317,1774523298.317057,0.03438981052588334,-0.004268762894807454,-0.281434717124637,0.9589544403110699,-0.009250245035569947,0.10175269539126941,0.13142329267517303,-1.22583125,-0.65704555,11.46397385
2026-03-26 20:08:18.327,1774523298.327175,0.034337648975062335,-0.004460124003272532,-0.28209866867638783,0.958760332037027,-0.007330382858376184,-0.061959188445798695,0.17610372152622786,-2.2359162,0.9120184499999999,11.32668075
2026-03-26 20:08:18.337,1774523298.337128,0.03434837434422713,-0.0041337720566875956,-0.28303014321235354,0.9584868487056495,-0.01780235837034216,-0.050265482457436686,0.1567305668290908,3.4617474499999994,1.2552512,7.3157609
2026-03-26 20:08:18.347,1774523298.347085,0.03423712864325568,-0.00421662973479145,-0.28369687999980076,0.9582933367890666,-0.026354471705114377,0.04293509959906051,0.15638150097869194,1.9122967499999999,2.04958985,8.9828914
2026-03-26 20:08:18.356,1774523298.356898,0.034017389301267305,-0.004358138632573409,-0.284361174102728,0.9581036199262079,-0.011519173063162575,0.009773843811168246,0.15655603390389136,-3.3734875999999994,-1.0198915999999998,12.738838349999998
2026-03-26 20:08:18.366,1774523298.366752,0.034171367857328355,-0.0041648997903655505,-0.28528846816976894,0.9578232932842269,0.016057029118347832,-0.09948376736367678,0.21781709064889235,0.12748644999999997,-0.32361945,9.914523149999999
2026-03-26 20:08:18.376,1774523298.376731,0.034300802426422354,-0.004055533401369932,-0.2862128120465556,0.9575433326080534,0.005585053606381855,-0.0010471975511965976,0.1843067690106012,2.42224255,1.8436502,9.394770699999999
2026-03-26 20:08:18.386,1774523298.386728,0.0341136442423579,-0.004394614755517938,-0.2870379006573349,0.9573015147924328,-0.01884955592153876,0.08674286382411818,0.16563174601426187,1.95152335,0.1372931,10.561762049999999
2026-03-26 20:08:18.396,1774523298.396745,0.03400984931238041,-0.00475552646922909,-0.2877788720945894,0.9570809975617086,0.0022689280275926286,0.0010471975511965976,0.205599785884932,-3.03025485,0.29419949999999995,9.845876599999999
2026-03-26 20:08:18.406,1774523298.406909,0.03413909254173638,-0.0046463536103308134,-0.2887024700907046,0.9567987340721562,0.020420352248333655,-0.06091199089460211,0.19739673840055869,-0.6962721499999999,0.53936575,7.7080269
2026-03-26 20:08:18.417,1774523298.41701,0.03429342867532128,-0.004456945467599893,-0.28971198722383157,0.9564889235352431,0.009773843811168246,-0.05235987755982989,0.20053833105414848,1.16699135,1.7455836999999998,8.5121722
2026-03-26 20:08:18.426,1774523298.426703,0.034256348875237076,-0.004297590103224111,-0.2906357982639965,0.9562106807856166,-0.02530727415391778,-0.024434609527920613,0.18657569703819382,1.5494507,2.1868829499999998,8.9436648
2026-03-26 20:08:18.436,1774523298.436786,0.0340099250267602,-0.004523944149902265,-0.29137942276504475,0.9559920977278589,-0.039095375244672985,0.06213372137099813,0.1541125729510993,-1.22583125,0.6472389,12.326959049999997
2026-03-26 20:08:18.446,1774523298.446761,0.033948416852235465,-0.004441744958210297,-0.29213323789904483,0.9557645877566155,-0.02007128639793479,-0.08866272600131195,0.1942551457469689,0.10787314999999999,0.45110589999999995,10.806928300000001
2026-03-26 20:08:18.456,1774523298.456712,0.033862306475591235,-0.004436937639510842,-0.29271741503004944,0.9555889140852681,-0.005061454830783556,0.06963863715457375,0.09965830028887622,0.2745862,0.65704555,9.502643849999998
2026-03-26 20:08:18.466,1774523298.466842,0.03383362977780535,-0.004543959680971519,-0.2933818049413424,0.9553856574472094,0.0012217304763960308,-0.030892327760299633,0.18552849948699723,1.1571847,0.0,9.669356899999999
2026-03-26 20:08:18.476,1774523298.476744,0.03386296089917083,-0.004757013627030275,-0.29395961172710733,0.9552059554743898,0.020420352248333655,0.013962634015954637,0.15114551322270894,-1.93191005,1.4121575999999998,8.580818749999999
2026-03-26 20:08:18.486,1774523298.486778,0.033884491679598054,-0.004703218375697173,-0.29479574953750864,0.9549477404628717,-0.004014257279586958,0.0,0.17784905077822216,2.8733484499999995,0.8433718999999998,7.7080269
2026-03-26 20:08:18.496,1774523298.496764,0.033752431727251744,-0.005143505120698169,-0.29544896205614507,0.9547482540060059,-0.0008726646259971648,0.035430183815484885,0.17662732030182612,-3.97169325,-0.17651969999999997,11.30706745
2026-03-26 20:08:18.507,1774523298.507048,0.03385081376823563,-0.004842696225735611,-0.29637603370199683,0.9544589657746249,0.011868238913561441,-0.13159782560037245,0.22218041377887815,0.7453053999999999,0.6276256,9.845876599999999
2026-03-26 20:08:18.516,1774523298.516723,0.03384062074844364,-0.0045994133129978795,-0.29730052333914425,0.9541729699623687,-0.039095375244672985,-0.02129301687433082,0.18552849948699723,3.34406765,2.67721545,7.7864801
2026-03-26 20:08:18.526,1774523298.526767,0.03353529901919431,-0.004714475815737872,-0.2980457613041805,0.9539506704259333,-0.0466002910282486,0.04834562028024293,0.19792033717615698,0.7551120499999999,0.40207265,11.316874099999998
2026-03-26 20:08:18.536,1774523298.536964,0.033369357378036583,-0.00497027386540616,-0.2989538571532846,0.9536709986463116,-0.016755160819145562,-0.012740903539558606,0.21851522234969006,-2.53992235,-0.04903325,12.258312499999999
2026-03-26 20:08:18.546,1774523298.546873,0.03330708468200947,-0.004895834127559748,-0.29995543983498596,0.9533590105682019,0.0012217304763960308,-0.029845130209103034,0.21432643214490366,1.8436502,0.22555294999999997,8.051259649999999
2026-03-26 20:08:18.556,1774523298.556761,0.03349493746095638,-0.004897136144860085,-0.30087223597356316,0.953063484161645,0.027925268031909273,-0.015009831567151233,0.1980948701013564,0.18632634999999997,0.8237586,8.237585999999999
2026-03-26 20:08:18.566,1774523298.566878,0.03359967177811832,-0.0048724680301764816,-0.3017891850273147,0.9527699664201464,0.02356194490192345,0.007504915783575617,0.19058995431778078,2.3732092999999996,0.8531785499999999,9.1397978
2026-03-26 20:08:18.576,1774523298.576769,0.03370978738215612,-0.005114983353162518,-0.3024480940650694,0.9525558448596879,0.021467549799530253,-0.024609142453120045,0.19285888234537343,-2.59876225,2.0005566,11.15016105
2026-03-26 20:08:18.586,1774523298.586848,0.033648204418596436,-0.005037756138115707,-0.3033654417841299,0.9522666790787216,-0.0445058959258554,0.00767944870877505,0.16615534478986016,2.6674088,1.1571847,9.4536106
2026-03-26 20:08:18.596,1774523298.596788,0.03331638063200542,-0.005228021475028003,-0.3039405127613509,0.9520939298595528,-0.04223696789826278,0.023736477827122883,0.17139133254584316,-0.73549875,0.7060787999999999,10.365629049999999
2026-03-26 20:08:18.606,1774523298.60678,0.03317654790292676,-0.005390850878100213,-0.3046003255479226,0.951887019069046,0.003490658503988659,0.035255650890285456,0.15428710587629874,-1.8632635,-0.16671305,9.934136449999999
2026-03-26 20:08:18.616,1774523298.616892,0.033308588046509206,-0.00527744154945972,-0.3053526375563846,0.9516419774843895,0.0066322511575784525,-0.0973893722612836,0.19861846887695472,-0.4118793,0.6276256,7.992419749999999
2026-03-26 20:08:18.626,1774523298.626776,0.033304432880829626,-0.0053036004229517365,-0.3060999611624474,0.9514018605980272,-0.009250245035569947,0.09634217471008698,0.14014993893514466,1.95152335,0.7943386499999999,8.5121722
2026-03-26 20:08:18.636,1774523298.636932,0.03314026733240471,-0.005824945220462256,-0.30674826516830567,0.9511957182991049,-0.006108652381980153,0.027925268031909273,0.21938788697568723,-2.8733484499999995,-0.24516625,11.95430635
2026-03-26 20:08:18.647,1774523298.647028,0.03307900291952912,-0.005744029429787427,-0.30758136779634626,0.9509292759592,-0.005061454830783556,-0.05235987755982989,0.19617500792416265,-0.6080123,0.53936575,9.77723005
2026-03-26 20:08:18.656,1774523298.656868,0.03304430532865564,-0.005582924859596628,-0.3084998013953023,0.9506338818779907,-0.02949606435870417,-0.02234021442552742,0.21537362969610027,4.2756994,0.3138128,8.159132799999998
2026-03-26 20:08:18.666,1774523298.666821,0.03287558266291902,-0.0058335967615862966,-0.3093219094571213,0.9503710441418116,-0.011519173063162575,-0.003141592653589793,0.23020892833805207,-3.0989014,-0.0784532,11.48358715
2026-03-26 20:08:18.676,1774523298.676873,0.03292406247011264,-0.005699316572112333,-0.3102392890462383,0.9500711065142227,-0.006108652381980153,-0.03944444109507184,0.20367992370773827,1.46119085,1.2846711499999999,9.44380395
2026-03-26 20:08:18.686,1774523298.686746,0.03283569290751495,-0.005703765690645267,-0.3111516476921975,0.9497757295628585,-0.027401669256310976,0.004363323129985824,0.22898719786165603,2.8635417999999997,1.4023509499999998,7.7864801
2026-03-26 20:08:18.696,1774523298.696951,0.03263904382315861,-0.006036667015677475,-0.3119704585788525,0.9495118137462808,-0.015707963267948967,0.06318091892219473,0.21589722847169854,-1.6671305,0.0588399,11.15016105
2026-03-26 20:08:18.706,1774523298.706791,0.03260649069670031,-0.006147992370069793,-0.31279633889964137,0.9492404697047235,0.02356194490192345,-0.06213372137099813,0.2132792345937071,-3.20677455,0.2353596,11.140354399999998
2026-03-26 20:08:18.716,1774523298.71684,0.032901936011859804,-0.005825693572143689,-0.313885004247212,0.9488728724174817,0.011868238913561441,-0.07906341511534314,0.23369958684204073,4.207052849999999,1.6671305,7.139241199999999
2026-03-26 20:08:18.726,1774523298.726742,0.032843014109308864,-0.006014250644839363,-0.31454214612606923,0.9486561039300824,-0.0008726646259971648,0.05567600313861911,0.1583013631558857,-2.2359162,1.36312435,11.05209455
2026-03-26 20:08:18.736,1774523298.736919,0.03283775318049341,-0.006042909287769178,-0.3153698848763666,0.9483812529391669,-0.006108652381980153,-0.05550147021341968,0.2335250539168413,-0.1372931,0.6864655000000001,11.709140099999999
2026-03-26 20:08:18.746,1774523298.746836,0.03283243281630396,-0.005795730181570457,-0.316205709727523,0.9481046303033958,-0.010471975511965976,-0.08342673824532895,0.21450096507010308,0.0588399,1.765197,8.8848249
2026-03-26 20:08:18.756,1774523298.756813,0.032799722794872935,-0.005907102195654192,-0.3170303709362535,0.9478296409335651,-0.011519173063162575,0.07173303225696695,0.1699950691442477,1.7946169499999998,0.5687857,8.46313895
2026-03-26 20:08:18.766,1774523298.766709,0.03262980189052707,-0.006150385423269082,-0.3176847427415002,0.9476148336834945,-0.005061454830783556,0.0,0.20769418098732523,-1.7357770499999998,0.38245935,10.110656149999999
2026-03-26 20:08:18.776,1774523298.776849,0.03262442224290637,-0.006178857951625075,-0.3185115716155907,0.9473372406565131,-0.013613568165555772,0.008726646259971648,0.16615534478986016,1.2160246,1.7357770499999998,8.835791649999999
2026-03-26 20:08:18.786,1774523298.786979,0.03253744916726759,-0.006173779477375158,-0.31917340008079764,0.9471174898234722,-0.04014257279586958,0.005585053606381855,0.17889624832941878,2.67721545,0.9512450499999999,8.91424485
2026-03-26 20:08:18.797,1774523298.797157,0.032340522781557954,-0.006220490290675086,-0.3197504050147397,0.9469292870007079,-0.022165681500327987,-0.024434609527920613,0.18867009214058703,-1.4513842,-0.04903325,11.885659799999999
2026-03-26 20:08:18.806,1774523298.806724,0.03230890236517517,-0.006052676904948287,-0.32049969331567085,0.9466781113529578,-0.011519173063162575,-0.09948376736367678,0.16441001553786586,-1.6671305,0.7551120499999999,11.630686899999999
2026-03-26 20:08:18.816,1774523298.816733,0.032471700149817685,-0.005585285100967928,-0.32134101812080024,0.9463901644421336,-0.01884955592153876,-0.038397243543875255,0.18657569703819382,4.697385349999999,0.8924051499999999,8.6886919
2026-03-26 20:08:18.826,1774523298.826898,0.032301514523737355,-0.005824768775874789,-0.32191194073734336,0.946200500231794,-0.007155849933176751,0.06318091892219473,0.15725416560468908,-0.8531785499999999,-0.35303939999999995,9.52225715
2026-03-26 20:08:18.836,1774523298.836763,0.032406825917960874,-0.006065910238313132,-0.3224837357468003,0.9460006567363956,0.050265482457436686,-0.013962634015954637,0.1864011641129944,-1.2160246,0.8727918499999999,8.149326149999998
2026-03-26 20:08:18.846,1774523298.846655,0.03267782764203077,-0.006093440920377593,-0.32322759986060806,0.9457372511679437,0.04799655442984406,-0.0054105206811824215,0.17243853009703977,1.7553903499999999,1.77500365,7.8060934
2026-03-26 20:08:18.856,1774523298.856812,0.03269959975367828,-0.006309557547577537,-0.32388205566259753,0.9455111525938089,-0.015707963267948967,0.016231562043547264,0.19373154697137057,-1.5984839499999999,0.63743225,11.748366699999998
2026-03-26 20:08:18.866,1774523298.866905,0.03263990517965612,-0.006227259253434105,-0.3247101808961181,0.9452296843912932,-0.015707963267948967,-0.05445427266222309,0.21537362969610027,-0.7453053999999999,0.30400615,10.85596155
2026-03-26 20:08:18.876,1774523298.876831,0.032470074598634546,-0.0061960903865246756,-0.32545354870784327,0.944980047595161,-0.0635299847725936,0.0301941960595019,0.19058995431778078,4.18743955,2.69682875,8.3748791
2026-03-26 20:08:18.886,1774523298.886778,0.03196535117022585,-0.006599650360047636,-0.3261000783230249,0.9447716125378696,-0.059341194567807204,0.0921533845053006,0.1679006740418545,-3.5009740499999995,-0.8531785499999999,11.95430635
2026-03-26 20:08:18.896,1774523298.896699,0.03190566474788948,-0.006516583315328436,-0.3269275415770254,0.9444881922275641,0.025656340004316644,-0.12409290981679684,0.21676989309769573,-0.8825985,-2.3928225999999997,11.0226746
2026-03-26 20:08:18.906,1774523298.906991,0.03231862371801859,-0.006135801171233888,-0.3277652341047194,0.9441863215580062,0.05550147021341968,-0.1048942880448592,0.23596851486963336,4.020726499999999,1.34351105,6.001669799999999
2026-03-26 20:08:18.916,1774523298.916704,0.032503070318151105,-0.0064147844556620166,-0.3285823046151659,0.9438940989613542,0.031066860685499065,0.12409290981679684,0.1825614397586069,2.4810824499999997,1.4709975,9.8654899
2026-03-26 20:08:18.926,1774523298.926715,0.03243679776795499,-0.006880829826118684,-0.3293100540304479,0.9436394420783438,0.021467549799530253,-0.01710422666954443,0.2398082392240209,-3.8049801999999997,0.7256921,13.38607725
2026-03-26 20:08:18.936,1774523298.936854,0.03251655877043417,-0.006664978325331415,-0.33022348592506034,0.9433189814761246,-0.022165681500327987,-0.0661479786505851,0.21973695282608607,1.6867437999999997,1.6082906,8.404299049999999
2026-03-26 20:08:18.946,1774523298.946825,0.03234613974200062,-0.006635573208139052,-0.3310477243551092,0.9430361077982613,-0.0466002910282486,0.05253441048502932,0.20542525295973257,3.0596748,1.4906107999999998,7.4922806
